time,seconds_elapsed,z,y,x
1731409782493507300,0.14050732421875,3.59043025970459,8.837292671203613,0.16271193325519562
1731409782503312600,0.150312744140625,3.5712878704071045,10.702198028564453,3.356531858444214
1731409782513117000,0.160116943359375,4.7611188888549805,11.681461334228516,6.260521411895752
1731409782522922500,0.169922607421875,5.8337016105651855,10.747661590576172,7.371389389038086
1731409782532728600,0.179728515625,5.7619171142578125,9.186644554138184,7.194320201873779
1731409782542534000,0.189533935546875,4.694119930267334,8.123931884765625,6.229414463043213
1731409782552338400,0.19933837890625,4.70608377456665,8.176573753356934,5.492125988006592
1731409782562143700,0.209143798828125,5.134698390960693,7.824530124664307,4.888835906982422
1731409782571949800,0.21894970703125,4.696512699127197,7.0800628662109375,4.026821613311768
1731409782581755100,0.228755126953125,5.046164035797119,7.123134136199951,3.715754508972168
1731409782591559700,0.2385595703125,5.730810165405273,7.688138961791992,3.8784663677215576
1731409782601365000,0.248364990234375,6.2862443923950195,8.468498229980469,3.849752426147461
1731409782611171000,0.258171142578125,5.881557941436768,8.475676536560059,3.2727832794189453
1731409782620976400,0.267976318359375,6.0777692794799805,7.800601959228516,2.7197420597076416
1731409782630781000,0.277781005859375,5.2854461669921875,6.972385883331299,2.434697151184082
1731409782640586500,0.28758642578125,4.8161540031433105,6.191727638244629,2.434697151184082
1731409782650392600,0.297392578125,5.5968122482299805,5.808577060699463,2.848954439163208
1731409782660198000,0.307197998046875,5.879165172576904,5.68175745010376,2.9877381324768066
1731409782670002400,0.31700244140625,5.781059741973877,5.5692949295043945,2.825026273727417
1731409782679807700,0.326807861328125,5.630311489105225,6.0146589279174805,3.0667014122009277
1731409782689613800,0.33661376953125,5.7619171142578125,6.912266254425049,3.3373894691467285
1731409782699419100,0.346419189453125,5.879165172576904,6.945765972137451,3.6460635662078857
1731409782709223700,0.3562236328125,6.633203506469727,6.390331745147705,3.945465326309204
1731409782719029000,0.366029052734375,7.447361469268799,6.1103715896606445,4.1297125816345215
1731409782728835000,0.3758349609375,8.565407752990723,5.68175745010376,4.242474555969238
1731409782738640400,0.385640380859375,9.295517921447754,5.013860702514648,4.1368913650512695
1731409782748445000,0.39544482421875,9.599705696105957,4.915754795074463,3.6364922523498535
1731409782758250200,0.405250244140625,9.975378036499023,4.760221481323242,3.3684961795806885
1731409782768056600,0.415056640625,10.437492370605469,4.417748928070068,3.0355947017669678
1731409782777862000,0.42486181640625,10.540383338928223,4.137489318847656,2.8465616703033447
1731409782787666200,0.434666259765625,10.506884574890137,4.53499698638916,3.054737091064453
1731409782797471700,0.4444716796875,10.15753173828125,4.963611602783203,2.8585257530212402
1731409782807277800,0.45427783203125,9.501599311828613,4.841577529907227,2.9063823223114014
1731409782817083100,0.464083251953125,8.586943626403809,4.889433860778809,2.8848466873168945
1731409782826887700,0.4738876953125,7.907082557678223,4.803292274475098,2.825026273727417
1731409782836693000,0.48369287109375,7.468896865844727,4.956432819366455,2.762812852859497
1731409782846499000,0.4934990234375,7.124031066894531,5.3970112800598145,2.769991397857666
1731409782856304400,0.503304443359375,7.16231632232666,5.981159210205078,2.9255247116088867
1731409782866109000,0.51310888671875,7.29182767868042,5.988337993621826,2.99013090133667
1731409782875914200,0.522914306640625,7.083353042602539,6.2515482902526855,2.36291241645813
1731409782885720600,0.532720458984375,7.519145965576172,6.943373203277588,2.2671995162963867
1731409782895526000,0.54252587890625,6.841678142547607,7.202096939086914,2.8609185218811035
1731409782905330200,0.552330078125,2.752643346786499,6.476772785186768,2.5378875732421875
1731409782915135700,0.5621357421875,3.6406795978546143,7.281060218811035,1.7620147466659546
1731409782924941800,0.57194189453125,4.933402061462402,7.628318786621094,1.7620147466659546
1731409782934747100,0.5817470703125,6.451348781585693,7.235596656799316,1.8505492210388184
1731409782944551700,0.5915517578125,7.502396106719971,6.426523208618164,1.6758731603622437
1731409782954357000,0.60135693359375,8.78794002532959,5.810969829559326,1.9199410676956177
1731409782964163000,0.6111630859375,9.724132537841797,5.509474277496338,2.472982168197632
1731409782973968400,0.620968505859375,10.16710376739502,5.636293888092041,2.588136672973633
1731409782983773000,0.63077294921875,10.50209903717041,5.643472194671631,2.573779821395874
1731409782993578200,0.640578125,10.724929809570312,5.700900077819824,2.5785655975341797
1731409783003384600,0.650384521484375,10.171889305114746,6.27786922454834,2.2959132194519043
1731409783013190000,0.66018994140625,9.443872451782227,6.213263034820557,2.255235433578491
1731409783022994200,0.669994140625,8.842975616455078,5.799005508422852,2.0542383193969727
1731409783032799700,0.6797998046875,8.220541954040527,5.466403484344482,2.1020946502685547
1731409783042605800,0.689605712890625,7.624430179595947,5.167001247406006,2.7675983905792236
1731409783052411100,0.6994111328125,7.779963493347168,6.773482799530029,2.4155545234680176
1731409783062215700,0.709215576171875,8.194221496582031,7.836493968963623,1.5753746032714844
1731409783072021000,0.71902099609375,8.996415138244629,7.685746192932129,0.18903298676013947
1731409783081827000,0.7288271484375,9.357730865478516,7.2690958976745605,-0.5003990530967712
1731409783091632400,0.73863232421875,9.693025588989258,7.508378505706787,-0.490827739238739
1731409783101437000,0.74843701171875,9.542277336120605,7.585247993469238,-0.4046861231327057
1731409783111242200,0.7582421875,9.094520568847656,7.187740325927734,-0.5961119532585144
1731409783121048300,0.76804833984375,8.529515266418457,6.98195743560791,-1.316650629043579
1731409783130853600,0.777853515625,8.742476463317871,6.495915412902832,-1.2041879892349243
1731409783140658200,0.787658203125,7.741678714752197,6.5150580406188965,-2.135594129562378
1731409783150463700,0.797463623046875,7.485646724700928,6.572485446929932,-2.8944180011749268
1731409783160269800,0.807269775390625,6.808178424835205,6.651448726654053,-4.211368083953857
1731409783170075100,0.8170751953125,5.979663848876953,6.634698867797852,-5.427519798278809
1731409783179879700,0.826879638671875,5.354837894439697,6.519843578338623,-6.3131632804870605
1731409783189685000,0.83668505859375,4.459623336791992,6.412166595458984,-6.914061069488525
1731409783199491000,0.846490966796875,3.0373892784118652,6.210870265960693,-7.290033340454102
1731409783209296400,0.85629638671875,1.404586911201477,6.0146589279174805,-7.227819919586182
1731409783219101000,0.866100830078125,-0.28564319014549255,5.966802597045898,-7.256533622741699
1731409783228906200,0.87590625,-1.2026925086975098,6.045765399932861,-7.294818878173828
1731409783238712300,0.88571240234375,-1.0205388069152832,5.969195365905762,-8.549256324768066
1731409783248517600,0.895517578125,-1.4778671264648438,5.507081508636475,-8.00100040435791
1731409783258322200,0.905322265625,-2.0811574459075928,5.741578102111816,-8.242975234985352
1731409783268127700,0.915127685546875,-2.449951171875,6.2204413414001465,-8.666504859924316
1731409783277933800,0.924933837890625,-5.385047435760498,6.100800514221191,-8.522934913635254
1731409783287739100,0.9347392578125,-7.115955352783203,5.61954402923584,-8.120641708374023
1731409783297543700,0.944543701171875,-7.915457248687744,5.571687698364258,-7.4240312576293945
1731409783307349000,0.954348876953125,-8.044968605041504,5.940481185913086,-6.7657060623168945
1731409783317155000,0.964155029296875,-7.23081111907959,6.359225273132324,-6.435197353363037
1731409783326960400,0.97396044921875,-6.3978095054626465,6.689733982086182,-6.188736438751221
1731409783336765000,0.983764892578125,-5.662614822387695,6.890730857849121,-5.592624664306641
1731409783346570200,0.9935703125,-4.96121883392334,6.969694137573242,-4.8553361892700195
1731409783356376300,1.003376220703125,-4.238286972045898,6.955337047576904,-4.429114818572998
1731409783366181600,1.013181640625,-3.757030725479126,7.001100063323975,-4.431507587432861
1731409783375986200,1.022986083984375,-2.6413772106170654,7.139883518218994,-4.431507587432861
1731409783385791500,1.03279150390625,-2.6509482860565186,6.955337047576904,-5.283651351928711
1731409783395597800,1.042597900390625,-2.684448003768921,6.716054916381836,-6.121737480163574
1731409783405403100,1.052403076171875,-2.8543384075164795,6.567699909210205,-6.4666032791137695
1731409783415207400,1.06220751953125,-3.4241292476654053,7.015456676483154,-5.853442192077637
1731409783425013000,1.072012939453125,-3.733102321624756,7.6666035652160645,-4.579862594604492
1731409783434819000,1.081819091796875,-3.869493246078491,8.236394882202148,-3.160320520401001
1731409783444624400,1.091624267578125,-3.922135353088379,8.779864311218262,-1.812264084815979
1731409783454429000,1.101428955078125,-3.685245990753174,9.143573760986328,-0.7707880139350891
1731409783464234200,1.111234130859375,-2.9790642261505127,9.311369895935059,-0.2632105052471161
1731409783474040300,1.121040283203125,-2.433201551437378,9.3759765625,-0.3448655605316162
1731409783483845600,1.130845703125,-2.035693883895874,9.196215629577637,-1.067797064781189
1731409783493650200,1.140650146484375,-1.999801516532898,9.000003814697266,-2.14516544342041
1731409783503455500,1.15045556640625,-2.440380096435547,8.799007415771484,-3.1028928756713867
1731409783513261800,1.16026171875,-2.694019079208374,8.485248565673828,-3.497708559036255
1731409783523067100,1.170067138671875,-2.794517755508423,8.31535816192627,-3.4331023693084717
1731409783532871400,1.179871337890625,-2.6270201206207275,8.262715339660645,-2.9853453636169434
1731409783542677000,1.189677001953125,-2.3111674785614014,8.336893081665039,-2.2600209712982178
1731409783552483000,1.199483154296875,-1.908874273300171,8.339285850524902,-1.9968105554580688
1731409783562288400,1.209288330078125,-1.6597216129302979,8.176573753356934,-2.283949136734009
1731409783572093000,1.219093017578125,-1.6812570095062256,7.987242221832275,-2.999702215194702
1731409783581898200,1.228898193359375,-2.0715861320495605,7.7455668449401855,-3.75643253326416
1731409783591704300,1.238704345703125,-3.0077781677246094,7.692924976348877,-4.527220249176025
1731409783601509600,1.248509521484375,-4.202394962310791,7.8077802658081055,-4.857728958129883
1731409783611314200,1.258314208984375,-5.114658355712891,7.898707389831543,-4.912764072418213
1731409783621119500,1.268119384765625,-5.765805244445801,7.9968132972717285,-4.862514495849609
1731409783630925800,1.27792578125,-5.906981945037842,8.056633949279785,-4.790729999542236
1731409783640731100,1.287731201171875,-5.657829284667969,7.903493404388428,-4.845765113830566
1731409783650535700,1.29753564453125,-5.1529436111450195,7.707281589508057,-4.915156841278076
1731409783660341000,1.307341064453125,-4.64297342300415,7.63310432434082,-5.06590461730957
1731409783670147000,1.31714697265625,-4.365106582641602,7.4724860191345215,-5.166403293609619
1731409783679952400,1.326952392578125,-4.491926193237305,7.302595615386963,-5.039583683013916
1731409783689757000,1.3367568359375,-5.140979290008545,7.2690958976745605,-4.860121726989746
1731409783699562200,1.346562255859375,-6.582056999206543,7.498806953430176,-4.960620403289795
1731409783709368300,1.356368408203125,-9.78544807434082,8.044670104980469,-5.020441055297852
1731409783719174000,1.366173828125,-13.24008560180664,8.676973342895508,-4.8314080238342285
1731409783728978200,1.375978271484375,-11.925827980041504,8.279465675354004,-4.460221290588379
1731409783738783700,1.38578369140625,-8.150253295898438,7.0633134841918945,-4.615755081176758
1731409783748589800,1.39558984375,-5.887839317321777,6.512664794921875,-4.9965128898620605
1731409783758395100,1.40539501953125,-5.42572546005249,6.512664794921875,-5.281258583068848
1731409783768199700,1.41519970703125,-6.194120407104492,6.732804775238037,-5.683551788330078
1731409783778005000,1.4250048828125,-7.575676441192627,7.111169815063477,-6.085845470428467
1731409783787811000,1.43481103515625,-8.657830238342285,7.685746192932129,-6.071488380432129
1731409783797616400,1.444616455078125,-9.617950439453125,8.411070823669434,-5.585446357727051
1731409783807421000,1.4544208984375,-10.472487449645996,9.145966529846191,-4.886443138122559
1731409783817226200,1.464226318359375,-11.059027671813965,8.8707914352417,-4.565505504608154
1731409783827032600,1.474032470703125,-11.221739768981934,8.55463981628418,-4.223331928253174
1731409783836838000,1.483837890625,-11.308180809020996,8.545068740844727,-4.235296249389648
1731409783846642200,1.49364208984375,-10.946565628051758,8.312965393066406,-4.565505504608154
1731409783856447700,1.50344775390625,-10.316953659057617,7.671389579772949,-4.931906700134277
1731409783866253800,1.51325390625,-9.306584358215332,6.795018196105957,-5.274080276489258
1731409783876059100,1.52305908203125,-7.518248558044434,6.594020843505859,-5.343770980834961
1731409783885863700,1.53286376953125,-5.181657314300537,6.474380016326904,-5.223830699920654
1731409783895669000,1.5426689453125,-2.217548370361328,6.275476455688477,-5.101797103881836
1731409783905475000,1.55247509765625,0.6074778437614441,6.048158168792725,-4.9725847244262695
1731409783915280400,1.5622802734375,3.1091740131378174,5.995516300201416,-4.651647090911865
1731409783925085000,1.5720849609375,5.228018283843994,5.988337993621826,-4.203890323638916
1731409783934890200,1.58189013671875,7.205387115478516,5.899803161621094,-3.6221351623535156
1731409783944696600,1.591696533203125,9.08255672454834,5.8133625984191895,-2.903989315032959
1731409783954502000,1.601501953125,10.518848419189453,5.691328525543213,-2.204986095428467
1731409783964306400,1.611306396484375,11.71585750579834,5.571687698364258,-1.6351951360702515
1731409783974111700,1.62111181640625,12.66162109375,5.449653625488281,-1.1300104856491089
1731409783983917800,1.630917724609375,12.989736557006836,5.392225742340088,-0.6320042610168457
1731409783993723100,1.64072314453125,12.465409278869629,5.430510997772217,-0.1052841991186142
1731409784003527700,1.650527587890625,11.347363471984863,5.262714385986328,0.019142581149935722
1731409784013333000,1.6603330078125,10.171889305114746,4.973182678222656,-0.2799602448940277
1731409784023139300,1.670139404296875,8.878867149353027,4.834399223327637,-0.6990033388137817
1731409784032944600,1.679944580078125,7.511967658996582,4.578067779541016,-1.2400803565979004
1731409784042749000,1.6897490234375,6.3173508644104,4.365106582641602,-1.9247267246246338
1731409784052554500,1.699554443359375,5.189733028411865,4.283750534057617,-2.6790640354156494
1731409784062360600,1.709360595703125,4.141078472137451,4.173680782318115,-3.2105698585510254
1731409784072166000,1.719165771484375,3.168994426727295,4.1398820877075195,-3.3517463207244873
1731409784081970400,1.728970458984375,1.9336998462677002,3.9652061462402344,-3.028416156768799
1731409784091775700,1.738775634765625,0.4612165689468384,3.639782428741455,-2.7963123321533203
1731409784101581800,1.748581787109375,-1.058824062347412,3.335594654083252,-2.848954439163208
1731409784111387400,1.758387451171875,-2.859123945236206,3.0891339778900146,-3.691826343536377
1731409784121191700,1.768191650390625,-5.095216751098633,3.0556344985961914,-4.7473602294921875
1731409784130997000,1.7779970703125,-7.357929706573486,3.136990547180176,-5.372485160827637
1731409784140803300,1.78780322265625,-9.713663101196289,3.780958890914917,-5.164010524749756
1731409784150608600,1.797608642578125,-18.679569244384766,3.8240296840667725,-5.836692810058594
1731409784160413200,1.8074130859375,-55.615779876708984,8.494819641113281,-6.21984338760376
1731409784170218500,1.817218505859375,-41.36831283569336,13.144372940063477,-4.603790760040283
1731409784180024600,1.827024658203125,-22.13181495666504,7.8317084312438965,-6.195915222167969
1731409784189830000,1.836829833984375,-9.15822982788086,3.773780345916748,-6.215057849884033
1731409784199634400,1.846634521484375,-3.160918712615967,4.032205104827881,-5.307579517364502
1731409784209440000,1.85643994140625,-3.955634832382202,6.534200668334961,-3.935894250869751
1731409784219246000,1.86624609375,-6.088836193084717,7.800601959228516,-3.4737801551818848
1731409784229051400,1.876051513671875,-7.456035137176514,7.860422611236572,-3.969393730163574
1731409784238856000,1.88585595703125,-8.641080856323242,8.01356315612793,-4.6372904777526855
1731409784248661200,1.8956611328125,-9.311369895935059,8.123931884765625,-5.274080276489258
1731409784258467300,1.90546728515625,-9.502796173095703,8.001599311828613,-5.793622016906738
1731409784268272600,1.915272705078125,-9.459725379943848,7.712067604064941,-5.927918910980225
1731409784278077200,1.9250771484375,-9.04098129272461,7.214061260223389,-5.822335720062256
1731409784287882500,1.934882568359375,-8.164609909057617,6.6490559577941895,-5.554339408874512
1731409784297688800,1.944688720703125,-6.934101104736328,6.234798431396484,-5.1209397315979
1731409784307494100,1.954494140625,-5.466403484344482,6.096014976501465,-4.673182487487793
1731409784317298700,1.964298583984375,-3.984348773956299,6.2036919593811035,-4.196712017059326
1731409784327104000,1.97410400390625,-2.615056037902832,6.323332786560059,-3.8521454334259033
1731409784336910000,1.98391015625,-1.4395818710327148,6.40229606628418,-3.7372899055480957
1731409784346715400,1.99371533203125,-0.5344967842102051,6.637091636657715,-3.6460635662078857
1731409784356520000,2.00352001953125,0.15732808411121368,6.912266254425049,-3.4881372451782227
1731409784366325200,2.0133251953125,0.6936194896697998,7.020242691040039,-3.349353551864624
1731409784376131600,2.023131591796875,1.2131611108779907,7.020242691040039,-3.1890344619750977
1731409784385937000,2.03293701171875,1.7877376079559326,7.04417085647583,-2.9853453636169434
1731409784395741400,2.042741455078125,2.627917528152466,7.075277328491211,-2.7747769355773926
1731409784405546800,2.052546630859375,3.7148571014404297,7.065706253051758,-2.520838737487793
1731409784415352800,2.062352783203125,4.995914459228516,7.228417873382568,-2.3030917644500732
1731409784425158100,2.072158203125,5.927021503448486,7.395915508270264,-2.121237277984619
1731409784434962700,2.081962646484375,6.527919292449951,7.319345474243164,-1.903191328048706
1731409784444768000,2.09176806640625,7.222136974334717,7.240382194519043,-1.6854444742202759
1731409784454574300,2.10157421875,7.892725467681885,7.321738243103027,-1.6878372430801392
1731409784464379600,2.111379638671875,8.038687705993652,7.316952705383301,-1.812264084815979
1731409784474184000,2.121183837890625,8.036294937133789,7.1973114013671875,-2.011167526245117
1731409784483989500,2.130989501953125,8.036294937133789,7.10638427734375,-2.3605196475982666
1731409784493795600,2.140795654296875,7.667500972747803,7.101598739624023,-2.9015965461730957
1731409784503601000,2.150600830078125,6.413064002990723,6.893123626708984,-3.397209882736206
1731409784513405400,2.160405517578125,4.3396830558776855,6.380760669708252,-4.014857292175293
1731409784523210800,2.170210693359375,4.275076866149902,6.732804775238037,-3.935894250869751
1731409784533017000,2.18001708984375,5.0964131355285645,7.405487060546875,-3.7372899055480957
1731409784542822400,2.189822509765625,4.794618606567383,8.243573188781738,-3.0116662979125977
1731409784552627000,2.199626953125,4.753940582275391,8.458927154541016,-2.887239694595337
1731409784562432300,2.209432373046875,4.55055046081543,8.015955924987793,-2.722134828567505
1731409784572238300,2.21923828125,4.031008720397949,7.69531774520874,-2.7795627117156982
1731409784582043600,2.229043701171875,3.544966697692871,7.542177200317383,-2.9015965461730957
1731409784591848200,2.23884814453125,3.147459030151367,7.281060218811035,-3.054737091064453
1731409784601653500,2.248653564453125,2.8746774196624756,7.0393853187561035,-3.5479576587677
1731409784611459800,2.2584599609375,2.4460630416870117,6.505486488342285,-4.07467794418335
1731409784621265200,2.26826513671875,2.0772690773010254,5.746363639831543,-4.287938117980957
1731409784631069700,2.278069580078125,1.7015960216522217,5.3108696937561035,-4.208974838256836
1731409784640875000,2.287875,1.1389836072921753,5.0856451988220215,-3.85693097114563
1731409784650681000,2.29768115234375,0.5620142221450806,4.841577529907227,-3.8306100368499756
1731409784660486400,2.307486328125,0.14775680005550385,4.601995944976807,-4.271188259124756
1731409784670291000,2.317291015625,-0.3454637825489044,4.252644062042236,-4.73300313949585
1731409784680096500,2.327096435546875,-0.9200403094291687,3.883850336074829,-5.0347981452941895
1731409784689902600,2.336902587890625,-1.7868403196334839,3.5222349166870117,-4.919942378997803
1731409784699708000,2.3467080078125,-2.828017234802246,3.2925238609313965,-4.761716842651367
1731409784709512400,2.356512451171875,-4.71236515045166,3.0098717212677,-4.5583271980285645
1731409784719317800,2.36631787109375,-17.302799224853516,4.183252334594727,-4.07467794418335
1731409784729123800,2.376123779296875,-53.12574768066406,9.847661972045898,-1.9920248985290527
1731409784738929400,2.385929443359375,-41.837608337402344,11.252846717834473,-1.7428722381591797
1731409784748733700,2.395733642578125,-22.488346099853516,7.891529083251953,-4.4650068283081055
1731409784758539300,2.405539306640625,-10.7766752243042,4.810471057891846,-5.1305108070373535
1731409784768345300,2.415345458984375,-4.11625337600708,3.986741542816162,-5.293222904205322
1731409784778150700,2.425150634765625,-2.576770782470703,5.162215709686279,-4.661218643188477
1731409784787955200,2.434955078125,-4.020540237426758,7.001100063323975,-3.6894333362579346
1731409784797760500,2.444760498046875,-6.160621166229248,8.176573753356934,-2.968595504760742
1731409784807566800,2.45456689453125,-7.4225358963012695,8.535497665405273,-2.8465616703033447
1731409784817372200,2.4643720703125,-8.18375301361084,8.501997947692871,-3.1746773719787598
1731409784827176700,2.4741767578125,-8.686544418334961,8.336893081665039,-3.7301113605499268
1731409784836982000,2.48398193359375,-8.983254432678223,8.16700267791748,-4.115355968475342
1731409784846788000,2.4937880859375,-9.15105152130127,7.8077802658081055,-4.278367042541504
1731409784856593400,2.503593505859375,-8.813364028930664,7.206882476806641,-4.431507587432861
1731409784866398000,2.51339794921875,-8.018648147583008,6.845267295837402,-4.486542224884033
1731409784876203500,2.52320361328125,-7.060920715332031,6.639484405517578,-4.517649173736572
1731409784886009600,2.533009521484375,-5.973980903625488,6.534200668334961,-4.536791801452637
1731409784895815000,2.54281494140625,-4.891826629638672,6.467201232910156,-4.529613494873047
1731409784905619500,2.552619384765625,-3.859921932220459,6.483951091766357,-4.527220249176025
1731409784915424800,2.5624248046875,-2.981456995010376,6.7040910720825195,-4.493721008300781
1731409784925230800,2.57223095703125,-2.200798511505127,6.888338088989258,-4.505684852600098
1731409784935036200,2.5820361328125,-1.5089738368988037,6.950551509857178,-4.498506546020508
1731409784944840700,2.5918408203125,-0.989432156085968,6.960123062133789,-4.48414945602417
1731409784954646300,2.601646240234375,-0.43639102578163147,6.86680269241333,-4.350151538848877
1731409784964452400,2.611452392578125,0.1740778535604477,6.869195461273193,-4.072285175323486
1731409784974257700,2.621257568359375,0.9424729943275452,6.888338088989258,-3.739682674407959
1731409784984062200,2.631062255859375,1.7374883890151978,6.878767013549805,-3.4953157901763916
1731409784993867500,2.640867431640625,2.4699912071228027,6.897909641265869,-3.373281717300415
1731409785003673900,2.650673828125,3.171387195587158,6.895516872406006,-3.4546377658843994
1731409785013479200,2.660479248046875,3.8922250270843506,6.79741096496582,-3.670290946960449
1731409785023283700,2.67028369140625,4.442873477935791,6.706483840942383,-3.849752426147461
1731409785033089000,2.680089111328125,4.780261516571045,6.7208404541015625,-3.9023945331573486
1731409785042895000,2.68989501953125,5.01505708694458,6.828517436981201,-3.85693097114563
1731409785052700700,2.69970068359375,5.251946449279785,6.833303451538086,-3.715754508972168
1731409785062505000,2.7095048828125,5.630311489105225,6.828517436981201,-3.5359935760498047
1731409785072310500,2.719310546875,5.881557941436768,6.871588230133057,-3.3996028900146484
1731409785082116600,2.72911669921875,6.250351905822754,7.015456676483154,-3.277568817138672
1731409785091922000,2.738921875,6.734001159667969,7.247560501098633,-3.160320520401001
1731409785101726500,2.7487265625,7.0785675048828125,7.364809036254883,-3.098107099533081
1731409785111531800,2.75853173828125,7.377969741821289,7.352844715118408,-3.090928554534912
1731409785121338000,2.768338134765625,7.406683444976807,7.348059177398682,-3.098107099533081
1731409785131143400,2.778143310546875,7.418647289276123,7.4246296882629395,-3.1507492065429688
1731409785140948000,2.787947998046875,7.5550384521484375,7.357630729675293,-3.356531858444214
1731409785150753300,2.797753173828125,7.483253479003906,7.214061260223389,-3.5336008071899414
1731409785160559400,2.807559326171875,7.40189790725708,7.094419956207275,-3.70139741897583
1731409785170365000,2.817364990234375,7.260721206665039,6.93619441986084,-3.9167516231536865
1731409785180169200,2.827169189453125,7.047461032867432,6.850052833557129,-4.07467794418335
1731409785189974800,2.836974853515625,6.8512492179870605,6.85244607925415,-4.191926002502441
1731409785199780900,2.84678076171875,6.6092753410339355,6.883552551269531,-4.230510234832764
1731409785209586200,2.856586181640625,6.276672840118408,6.969694137573242,-4.256831645965576
1731409785219390700,2.866390625,5.706881999969482,6.93619441986084,-4.194318771362305
1731409785229196000,2.876196044921875,5.031806945800781,6.780661106109619,-4.029214382171631
1731409785239002400,2.88600244140625,4.430909156799316,6.603592395782471,-3.8784663677215576
1731409785248807700,2.8958076171875,3.8536407947540283,6.438487529754639,-3.770789384841919
1731409785258612200,2.9056123046875,3.348755359649658,6.234798431396484,-3.6942191123962402
1731409785268417500,2.91541748046875,2.8292136192321777,5.947659969329834,-3.559921979904175
1731409785278223600,2.9252236328125,2.2857437133789062,5.653043270111084,-3.421138286590576
1731409785288029200,2.935029296875,1.6968103647232056,5.401797294616699,-3.3756744861602783
1731409785297833500,2.94483349609375,0.966401219367981,5.2028937339782715,-3.4809587001800537
1731409785307639000,2.95463916015625,0.16689938306808472,4.860720157623291,-3.468994617462158
1731409785317445000,2.964445068359375,-0.6735795736312866,4.412963390350342,-3.562314748764038
1731409785327250400,2.97425048828125,-1.4324034452438354,3.9652061462402344,-3.715754508972168
1731409785337055000,2.984054931640625,-2.011765718460083,3.6589248180389404,-3.9574296474456787
1731409785346860300,2.9938603515625,-2.607877492904663,3.452843189239502,-4.438685894012451
1731409785356666600,3.00366650390625,-3.560819149017334,3.3786656856536865,-4.72582483291626
1731409785366472000,3.013471923828125,-5.528616905212402,3.2039895057678223,-4.713860511779785
1731409785376276500,3.0232763671875,-18.916460037231445,4.482355117797852,-3.442673683166504
1731409785386081800,3.033081787109375,-57.98347473144531,8.463712692260742,0.5075774788856506
1731409785395888000,3.04288818359375,-40.95405578613281,10.089336395263672,0.7444669604301453
1731409785405693400,3.052693359375,-20.680866241455078,7.953742504119873,-1.872084617614746
1731409785415497700,3.062497802734375,-7.3675007820129395,5.296513080596924,-2.5689942836761475
1731409785425303300,3.07230322265625,-1.571187138557434,4.0202412605285645,-3.387638568878174
1731409785435109400,3.082109375,1.069591760635376,4.618745803833008,-3.617349624633789
1731409785444914700,3.091914794921875,1.3040883541107178,6.534200668334961,-3.3780672550201416
1731409785454719200,3.10171923828125,0.6074778437614441,8.222037315368652,-3.1244282722473145
1731409785464524800,3.11152490234375,0.2721835672855377,8.662615776062012,-3.4067811965942383
1731409785474331000,3.121330810546875,0.21954147517681122,8.425427436828613,-4.1368913650512695
1731409785484136200,3.13113623046875,-0.34307095408439636,8.119146347045898,-4.984548568725586
1731409785493940700,3.140940673828125,-1.602293848991394,7.786244869232178,-5.678766250610352
1731409785503746000,3.15074609375,-3.6661033630371094,7.474878787994385,-6.0762739181518555
1731409785513552400,3.160552490234375,-7.829315662384033,7.427022457122803,-5.702694416046143
1731409785523357700,3.170357666015625,-13.78355598449707,7.52512788772583,-4.457828521728516
1731409785533162200,3.180162353515625,-13.606487274169922,7.405487060546875,-3.600599765777588
1731409785542967600,3.189967529296875,-10.132407188415527,6.8380889892578125,-3.57906436920166
1731409785552773600,3.199773681640625,-6.342774391174316,6.3376898765563965,-3.7755749225616455
1731409785562579000,3.209578857421875,-4.001397609710693,6.301797389984131,-3.73250412940979
1731409785572383500,3.219383544921875,-3.0388846397399902,6.684948444366455,-3.4618160724639893
1731409785582189000,3.22918896484375,-3.1657042503356934,7.18295431137085,-3.2297122478485107
1731409785591995100,3.2389951171875,-3.9125640392303467,7.467700481414795,-3.16749906539917
1731409785601800400,3.248800537109375,-4.755435943603516,7.482057094573975,-3.3445677757263184
1731409785611605000,3.25860498046875,-5.43290376663208,7.333702087402344,-3.6293137073516846
1731409785621410300,3.268410400390625,-5.775376319885254,7.17577600479126,-3.8234314918518066
1731409785631216600,3.278216552734375,-5.854339599609375,7.025028228759766,-3.749253988265991
1731409785641022000,3.28802197265625,-5.67966365814209,6.912266254425049,-3.5910286903381348
1731409785650826500,3.297826416015625,-5.413761138916016,6.842874526977539,-3.6221351623535156
1731409785660631800,3.3076318359375,-5.325226783752441,6.8309102058410645,-3.593421459197998
1731409785670438000,3.31743798828125,-5.490331649780273,6.93619441986084,-3.500101327896118
1731409785680243500,3.327243408203125,-5.61236572265625,7.022635459899902,-3.5120654106140137
1731409785690047700,3.3370478515625,-5.638686656951904,7.0800628662109375,-3.677469253540039
1731409785699853300,3.346853271484375,-5.598008632659912,7.0872416496276855,-3.7995033264160156
1731409785709659400,3.356659423828125,-5.535795211791992,7.089634418487549,-3.8760735988616943
1731409785719464700,3.366464599609375,-5.5142598152160645,7.0561347007751465,-3.8473596572875977
1731409785729269200,3.376269287109375,-5.50229549407959,7.017849922180176,-3.7683966159820557
1731409785739074800,3.38607470703125,-5.526223659515381,7.010671138763428,-3.691826343536377
1731409785748881000,3.395880859375,-5.526223659515381,7.027420997619629,-3.7061831951141357
1731409785758686200,3.405686279296875,-5.5381879806518555,7.070491790771484,-3.6559338569641113
1731409785768490800,3.41549072265625,-5.554937839508057,7.092027187347412,-3.5431721210479736
1731409785778296000,3.425296142578125,-5.492724418640137,7.096812725067139,-3.5336008071899414
1731409785788102400,3.435102294921875,-5.365904808044434,7.065706253051758,-3.6221351623535156
1731409785797907700,3.44490771484375,-5.267798900604248,7.025028228759766,-3.684647798538208
1731409785807712300,3.454712158203125,-5.30129861831665,7.046563625335693,-3.7516467571258545
1731409785817517600,3.464517578125,-5.373083114624023,7.096812725067139,-3.7683966159820557
1731409785827323600,3.47432373046875,-5.449653625488281,7.127919673919678,-3.7133617401123047
1731409785837129200,3.484129150390625,-5.466403484344482,7.135097980499268,-3.6293137073516846
1731409785846933500,3.49393359375,-5.42572546005249,7.1255269050598145,-3.638885021209717
1731409785856739000,3.503739013671875,-5.447260856628418,7.10638427734375,-3.6460635662078857
1731409785866545200,3.513545166015625,-5.490331649780273,7.108777046203613,-3.6966118812561035
1731409785876350500,3.5233505859375,-5.559723377227783,7.132705211639404,-3.7181472778320312
1731409785886155000,3.533155029296875,-5.6099724769592285,7.1255269050598145,-3.708575963973999
1731409785895960600,3.542960693359375,-5.574080467224121,7.137490749359131,-3.6726837158203125
1731409785905766700,3.5527666015625,-5.485546112060547,7.142276287078857,-3.6655051708221436
1731409785915572000,3.562572021484375,-5.4041900634765625,7.151847839355469,-3.6559338569641113
1731409785925376500,3.57237646484375,-5.368297576904297,7.16859769821167,-3.638885021209717
1731409785935181800,3.582181884765625,-5.344369411468506,7.1973114013671875,-3.57906436920166
1731409785944988200,3.59198828125,-5.353940486907959,7.211668491363525,-3.531208038330078
1731409785954793500,3.60179345703125,-5.327619552612305,7.257132053375244,-3.5479576587677
1731409785964598000,3.611597900390625,-5.30847692489624,7.249953269958496,-3.555136203765869
1731409785974403300,3.6214033203125,-5.320441246032715,7.228417873382568,-3.5407793521881104
1731409785984209400,3.63120947265625,-5.368297576904297,7.218846797943115,-3.5359935760498047
1731409785994014700,3.6410146484375,-5.4281182289123535,7.194918632507324,-3.5671002864837646
1731409786003819300,3.6508193359375,-5.459224700927734,7.151847839355469,-3.593421459197998
1731409786013624800,3.660624755859375,-5.444868087768555,7.10638427734375,-3.617349624633789
1731409786023431000,3.670430908203125,-5.485546112060547,7.111169815063477,-3.6221351623535156
1731409786033236200,3.680236328125,-5.507081508636475,7.142276287078857,-3.614956855773926
1731409786043040800,3.690040771484375,-5.526223659515381,7.132705211639404,-3.638885021209717
1731409786052846000,3.69984619140625,-5.5381879806518555,7.101598739624023,-3.6364922523498535
1731409786062652400,3.70965234375,-5.4951171875,7.072884559631348,-3.5886356830596924
1731409786072457700,3.719457763671875,-5.478367328643799,7.04417085647583,-3.545564889907837
1731409786082262300,3.72926220703125,-5.509474277496338,7.089634418487549,-3.5024940967559814
1731409786092067600,3.739067626953125,-5.55015230178833,7.123134136199951,-3.5264222621917725
1731409786101873700,3.748873779296875,-5.571687698364258,7.115955352783203,-3.5336008071899414
1731409786111679000,3.758678955078125,-5.574080467224121,7.118348121643066,-3.5359935760498047
1731409786121483500,3.7684833984375,-5.507081508636475,7.127919673919678,-3.538386583328247
1731409786131289000,3.7782890625,-5.435296535491943,7.144669532775879,-3.552743434906006
1731409786141095200,3.78809521484375,-5.44008207321167,7.199704170227051,-3.562314748764038
1731409786150900500,3.797900390625,-5.4281182289123535,7.249953269958496,-3.5671002864837646
1731409786160705000,3.807705078125,-5.444868087768555,7.252346515655518,-3.607778310775757
1731409786170510300,3.81751025390625,-5.4041900634765625,7.254739284515381,-3.6559338569641113
1731409786180316700,3.827316650390625,-5.368297576904297,7.218846797943115,-3.684647798538208
1731409786190122000,3.8371220703125,-5.382654666900635,7.194918632507324,-3.715754508972168
1731409786199926500,3.846926513671875,-5.420939922332764,7.187740325927734,-3.739682674407959
1731409786209731800,3.85673193359375,-5.442475318908691,7.218846797943115,-3.780360698699951
1731409786219538200,3.8665380859375,-5.447260856628418,7.218846797943115,-3.7683966159820557
1731409786229343500,3.876343505859375,-5.4759745597839355,7.194918632507324,-3.7540395259857178
1731409786239147800,3.886147705078125,-5.468796253204346,7.154240608215332,-3.739682674407959
1731409786248953300,3.895953369140625,-5.44008207321167,7.139883518218994,-3.7109687328338623
1731409786258759400,3.905759521484375,-5.408975601196289,7.144669532775879,-3.6559338569641113
1731409786268564700,3.915564697265625,-5.30847692489624,7.118348121643066,-3.6822550296783447
1731409786278369300,3.925369384765625,-5.251049518585205,7.075277328491211,-3.7516467571258545
1731409786288174800,3.9351748046875,-5.270191669464111,7.077670097351074,-3.7516467571258545
1731409786297981000,3.94498095703125,-5.373083114624023,7.135097980499268,-3.6870405673980713
1731409786307786200,3.9547861328125,-5.519045352935791,7.1973114013671875,-3.5814573764801025
1731409786317590800,3.9645908203125,-5.566901683807373,7.211668491363525,-3.5742788314819336
1731409786327396000,3.97439599609375,-5.545366287231445,7.226025104522705,-3.631706476211548
1731409786337202400,3.984202392578125,-5.523830890655518,7.23798942565918,-3.739682674407959
1731409786347007700,3.9940078125,-5.521438121795654,7.223632335662842,-3.8449668884277344
1731409786356812300,4.003812255859375,-5.461617469787598,7.18295431137085,-3.921537160873413
1731409786366617600,4.01361767578125,-5.435296535491943,7.178168773651123,-3.897608995437622
1731409786376423700,4.023423583984375,-5.3802618980407715,7.194918632507324,-3.8449668884277344
1731409786386229000,4.03322900390625,-5.2869415283203125,7.228417873382568,-3.79471755027771
1731409786396033500,4.043033447265625,-5.224728107452393,7.242774963378906,-3.7348971366882324
1731409786405839000,4.052839111328125,-5.219942569732666,7.218846797943115,-3.6822550296783447
1731409786415645200,4.062645263671875,-5.279763221740723,7.206882476806641,-3.6487553119659424
1731409786425450500,4.072450439453125,-5.330012321472168,7.190133094787598,-3.5982069969177246
1731409786435255000,4.082255126953125,-5.349154949188232,7.180561542510986,-3.5886356830596924
1731409786445060400,4.092060302734375,-5.341976642608643,7.170990467071533,-3.667897939682007
1731409786454866700,4.10186669921875,-5.365904808044434,7.166204929351807,-3.739682674407959
1731409786464672000,4.111672119140625,-5.389832973480225,7.142276287078857,-3.7755749225616455
1731409786474476500,4.1214765625,-5.423332691192627,7.135097980499268,-3.7612180709838867
1731409786484281900,4.13128173828125,-5.4520463943481445,7.1494550704956055,-3.7420754432678223
1731409786494088000,4.141087890625,-5.454439163208008,7.159026145935059,-3.7253258228302
1731409786503893200,4.150893310546875,-5.382654666900635,7.144669532775879,-3.715754508972168
1731409786513697800,4.16069775390625,-5.277370452880859,7.147062301635742,-3.6798620223999023
1731409786523503400,4.17050341796875,-5.219942569732666,7.163811683654785,-3.667897939682007
1731409786533309400,4.180309326171875,-5.205585479736328,7.185347080230713,-3.684647798538208
1731409786543114800,4.19011474609375,-5.272584915161133,7.204489707946777,-3.6822550296783447
1731409786552919300,4.199919189453125,-5.306084156036377,7.199704170227051,-3.6894333362579346
1731409786562724600,4.209724609375,-5.296513080596924,7.202096939086914,-3.699004650115967
1731409786572530700,4.21953076171875,-5.248656272888184,7.218846797943115,-3.7348971366882324
1731409786582336300,4.229336181640625,-5.251049518585205,7.192525863647461,-3.7588253021240234
1731409786592140800,4.239140869140625,-5.274977684020996,7.180561542510986,-3.7253258228302
1731409786601946000,4.248946044921875,-5.332405090332031,7.180561542510986,-3.6966118812561035
1731409786611752200,4.258752197265625,-5.349154949188232,7.216454029083252,-3.684647798538208
1731409786621557800,4.268557861328125,-5.368297576904297,7.228417873382568,-3.6726837158203125
1731409786631362000,4.278362060546875,-5.385047435760498,7.206882476806641,-3.6798620223999023
1731409786641167600,4.288167724609375,-5.3802618980407715,7.170990467071533,-3.699004650115967
1731409786650973700,4.2979736328125,-5.382654666900635,7.137490749359131,-3.746861219406128
1731409786660779000,4.307779052734375,-5.373083114624023,7.10638427734375,-3.8306100368499756
1731409786670583600,4.31758349609375,-5.36351203918457,7.103991508483887,-3.8688950538635254
1731409786680388900,4.327388916015625,-5.382654666900635,7.139883518218994,-3.801896095275879
1731409786690195200,4.3371953125,-5.392225742340088,7.142276287078857,-3.7277185916900635
1731409786700000500,4.34700048828125,-5.4281182289123535,7.1255269050598145,-3.6822550296783447
1731409786709805000,4.35680517578125,-5.44008207321167,7.11356258392334,-3.6942191123962402
1731409786719610400,4.3666103515625,-5.387440204620361,7.099205493927002,-3.699004650115967
1731409786729416400,4.37641650390625,-5.385047435760498,7.092027187347412,-3.691826343536377
1731409786739221800,4.3862216796875,-5.408975601196289,7.0872416496276855,-3.6966118812561035
1731409786749026300,4.3960263671875,-5.456831932067871,7.096812725067139,-3.7181472778320312
1731409786758831900,4.405831787109375,-5.468796253204346,7.099205493927002,-3.73250412940979
1731409786768638000,4.415637939453125,-5.430510997772217,7.103991508483887,-3.7516467571258545
1731409786778443300,4.425443359375,-5.387440204620361,7.108777046203613,-3.777967929840088
1731409786788247800,4.435247802734375,-5.3802618980407715,7.139883518218994,-3.739682674407959
1731409786798053000,4.44505322265625,-5.423332691192627,7.156633377075195,-3.6583266258239746
1731409786807859200,4.454859130859375,-5.4520463943481445,7.163811683654785,-3.631706476211548
1731409786817664800,4.464664794921875,-5.480760097503662,7.132705211639404,-3.6436707973480225
1731409786827469300,4.47446923828125,-5.430510997772217,7.130312442779541,-3.6798620223999023
1731409786837274600,4.484274658203125,-5.444868087768555,7.115955352783203,-3.7181472778320312
1731409786847080700,4.494080810546875,-5.4281182289123535,7.092027187347412,-3.7899320125579834
1731409786856886000,4.503885986328125,-5.4041900634765625,7.11356258392334,-3.8066816329956055
1731409786866690600,4.513690673828125,-5.346762180328369,7.159026145935059,-3.78753924369812
1731409786876496000,4.523495849609375,-5.272584915161133,7.178168773651123,-3.7516467571258545
1731409786886302200,4.53330224609375,-5.24626350402832,7.192525863647461,-3.7372899055480957
1731409786896107500,4.543107421875,-5.282155990600586,7.211668491363525,-3.7205400466918945
1731409786905912000,4.552912109375,-5.315655708312988,7.1733832359313965,-3.7420754432678223
1731409786915717400,4.56271728515625,-5.351547718048096,7.1494550704956055,-3.73250412940979
1731409786925523500,4.5725234375,-5.375475883483887,7.11356258392334,-3.7277185916900635
1731409786935328800,4.582328857421875,-5.392225742340088,7.070491790771484,-3.7277185916900635
1731409786945133300,4.59213330078125,-5.413761138916016,7.05134916305542,-3.7588253021240234
1731409786954939000,4.60193896484375,-5.406582832336426,7.068099021911621,-3.7731821537017822
1731409786964745000,4.611744873046875,-5.341976642608643,7.139883518218994,-3.7827534675598145
1731409786974550300,4.62155029296875,-5.2630133628845215,7.187740325927734,-3.7923247814178467
1731409786984354800,4.631354736328125,-5.1840500831604,7.23081111907959,-3.79471755027771
1731409786994160000,4.64116015625,-5.212764263153076,7.209275722503662,-3.7851462364196777
1731409787003966200,4.65096630859375,-5.30847692489624,7.156633377075195,-3.746861219406128
1731409787013771800,4.660771728515625,-5.389832973480225,7.127919673919678,-3.7444684505462646
1731409787023576300,4.670576416015625,-5.401797294616699,7.118348121643066,-3.7683966159820557
1731409787033381600,4.680381591796875,-5.3347978591918945,7.135097980499268,-3.777967929840088
1731409787043187700,4.690187744140625,-5.303691387176514,7.132705211639404,-3.7995033264160156
1731409787052993000,4.699992919921875,-5.313262462615967,7.156633377075195,-3.78753924369812
1731409787062797600,4.709797607421875,-5.332405090332031,7.206882476806641,-3.73250412940979
1731409787072603000,4.719602783203125,-5.332405090332031,7.261917591094971,-3.6631124019622803
1731409787082409200,4.7294091796875,-5.279763221740723,7.271489143371582,-3.670290946960449
1731409787092214500,4.739214599609375,-5.236692428588867,7.214061260223389,-3.7301113605499268
1731409787102019000,4.74901904296875,-5.2151570320129395,7.199704170227051,-3.76361083984375
1731409787111824400,4.758824462890625,-5.222335338592529,7.166204929351807,-3.770789384841919
1731409787121630500,4.76863037109375,-5.303691387176514,7.154240608215332,-3.7851462364196777
1731409787131436000,4.77843603515625,-5.344369411468506,7.17577600479126,-3.7851462364196777
1731409787141240300,4.788240234375,-5.313262462615967,7.23081111907959,-3.780360698699951
1731409787151046000,4.7980458984375,-5.258227825164795,7.281060218811035,-3.7923247814178467
1731409787160852000,4.80785205078125,-5.253442287445068,7.3145599365234375,-3.770789384841919
1731409787170657300,4.8176572265625,-5.282155990600586,7.316952705383301,-3.739682674407959
1731409787180461800,4.8274619140625,-5.315655708312988,7.283452987670898,-3.691826343536377
1731409787190267100,4.83726708984375,-5.30129861831665,7.235596656799316,-3.6798620223999023
1731409787200073500,4.847073486328125,-5.241477966308594,7.226025104522705,-3.677469253540039
1731409787209878800,4.856878662109375,-5.219942569732666,7.214061260223389,-3.7205400466918945
1731409787219683300,4.866683349609375,-5.229514122009277,7.2212395668029785,-3.79471755027771
1731409787229488600,4.876488525390625,-5.277370452880859,7.297810077667236,-3.7971103191375732
1731409787239294700,4.886294677734375,-5.315655708312988,7.348059177398682,-3.7588253021240234
1731409787249100000,4.89610009765625,-5.277370452880859,7.324131011962891,-3.70139741897583
1731409787258904600,4.905904541015625,-5.212764263153076,7.281060218811035,-3.653541088104248
1731409787268710000,4.9157099609375,-5.162514686584473,7.278667449951172,-3.5958142280578613
1731409787278516200,4.92551611328125,-5.193621635437012,7.259524822235107,-3.5431721210479736
1731409787288321500,4.935321533203125,-5.258227825164795,7.214061260223389,-3.562314748764038
1731409787298126000,4.9451259765625,-5.313262462615967,7.1733832359313965,-3.593421459197998
1731409787307931400,4.954931396484375,-5.349154949188232,7.159026145935059,-3.614956855773926
1731409787317737500,4.964737548828125,-5.332405090332031,7.132705211639404,-3.6460635662078857
1731409787327542800,4.974542724609375,-5.320441246032715,7.1973114013671875,-3.638885021209717
1731409787337347300,4.984347412109375,-5.298905849456787,7.3002028465271,-3.6436707973480225
1731409787347153000,4.99415283203125,-5.241477966308594,7.340880870819092,-3.653541088104248
1731409787356959000,5.003958984375,-5.131408214569092,7.3313093185424805,-3.6293137073516846
1731409787366764300,5.013764404296875,-5.059324264526367,7.278667449951172,-3.6269209384918213
1731409787376568800,5.02356884765625,-5.090431213378906,7.226025104522705,-3.624528169631958
1731409787386374100,5.0333740234375,-5.167300701141357,7.192525863647461,-3.6221351623535156
1731409787396180200,5.04318017578125,-5.179264545440674,7.206882476806641,-3.677469253540039
1731409787405985500,5.052985595703125,-5.217549800872803,7.226025104522705,-3.7348971366882324
1731409787415790000,5.0627900390625,-5.270191669464111,7.271489143371582,-3.7588253021240234
1731409787425595600,5.072595703125,-5.267798900604248,7.312166690826416,-3.7133617401123047
1731409787435401700,5.082401611328125,-5.251049518585205,7.336095333099365,-3.6460635662078857
1731409787445207000,5.09220703125,-5.188836097717285,7.345666408538818,-3.600599765777588
1731409787455011600,5.102011474609375,-5.102395057678223,7.309773921966553,-3.5742788314819336
1731409787464817000,5.11181689453125,-5.071288585662842,7.281060218811035,-3.614956855773926
1731409787474623000,5.121623046875,-5.083252429962158,7.254739284515381,-3.7133617401123047
1731409787484428500,5.131428466796875,-5.148158073425293,7.254739284515381,-3.7660038471221924
1731409787494232800,5.14123291015625,-5.212764263153076,7.2690958976745605,-3.7540395259857178
1731409787504038400,5.151038330078125,-5.212764263153076,7.283452987670898,-3.7277185916900635
1731409787513844500,5.160844482421875,-5.172086238861084,7.302595615386963,-3.660719633102417
1731409787523649800,5.17064990234375,-5.14576530456543,7.264310359954834,-3.593421459197998
1731409787533454300,5.180454345703125,-5.140979290008545,7.209275722503662,-3.538386583328247
1731409787543259600,5.190259765625,-5.1529436111450195,7.156633377075195,-3.521636724472046
1731409787553066000,5.20006591796875,-5.186442852020264,7.1494550704956055,-3.569493293762207
1731409787562871300,5.209871337890625,-5.231906890869141,7.1733832359313965,-3.6364922523498535
1731409787572675600,5.219675537109375,-5.2941203117370605,7.18295431137085,-3.684647798538208
1731409787582481200,5.229481201171875,-5.358726501464844,7.202096939086914,-3.670290946960449
1731409787592287200,5.239287353515625,-5.351547718048096,7.242774963378906,-3.64127779006958
1731409787602092500,5.249092529296875,-5.303691387176514,7.2451677322387695,-3.6364922523498535
1731409787611897000,5.25889697265625,-5.267798900604248,7.235596656799316,-3.6364922523498535
1731409787621702400,5.268702392578125,-5.258227825164795,7.240382194519043,-3.6559338569641113
1731409787631508500,5.278508544921875,-5.296513080596924,7.226025104522705,-3.653541088104248
1731409787641314000,5.28831396484375,-5.318048477172852,7.235596656799316,-3.653541088104248
1731409787651118300,5.298118408203125,-5.306084156036377,7.278667449951172,-3.6340994834899902
1731409787660924000,5.307923828125,-5.303691387176514,7.271489143371582,-3.6340994834899902
1731409787670730000,5.31772998046875,-5.306084156036377,7.252346515655518,-3.6197423934936523
1731409787680535300,5.327535400390625,-5.30847692489624,7.228417873382568,-3.638885021209717
1731409787690339800,5.33733984375,-5.313262462615967,7.226025104522705,-3.675076484680176
1731409787700145200,5.347145263671875,-5.318048477172852,7.242774963378906,-3.7109687328338623
1731409787709951200,5.356951171875,-5.291727066040039,7.302595615386963,-3.7348971366882324
1731409787719756800,5.3667568359375,-5.1768717765808105,7.273881912231445,-3.7660038471221924
1731409787729561000,5.37656103515625,-5.066503047943115,7.247560501098633,-3.7683966159820557
1731409787739366700,5.38636669921875,-5.112265586853027,7.278667449951172,-3.7301113605499268
1731409787749172700,5.3961728515625,-5.198407173156738,7.3384881019592285,-3.631706476211548
1731409787758978000,5.40597802734375,-5.284548759460449,7.367201805114746,-3.5718860626220703
1731409787768782600,5.415782470703125,-5.306084156036377,7.297810077667236,-3.607778310775757
1731409787778588000,5.425587890625,-5.260620594024658,7.218846797943115,-3.6436707973480225
1731409787788394000,5.43539404296875,-5.234299659729004,7.206882476806641,-3.670290946960449
1731409787798199300,5.44519921875,-5.227120876312256,7.23081111907959,-3.675076484680176
1731409787808003800,5.45500390625,-5.1768717765808105,7.271489143371582,-3.7037904262542725
1731409787817809400,5.464809326171875,-5.076074123382568,7.324131011962891,-3.7181472778320312
1731409787827615500,5.474615478515625,-5.013860702514648,7.357630729675293,-3.7253258228302
1731409787837420800,5.4844208984375,-5.073681354522705,7.360023498535156,-3.7277185916900635
1731409787847225300,5.494225341796875,-5.186442852020264,7.333702087402344,-3.7253258228302
1731409787857030700,5.50403076171875,-5.265406131744385,7.3002028465271,-3.6966118812561035
1731409787866836700,5.513836669921875,-5.267798900604248,7.273881912231445,-3.638885021209717
1731409787876642000,5.52364208984375,-5.2390851974487305,7.259524822235107,-3.607778310775757
1731409787886446600,5.533446533203125,-5.179264545440674,7.271489143371582,-3.6029927730560303
1731409787896252200,5.543252197265625,-5.155336380004883,7.290631294250488,-3.6364922523498535
1731409787906058200,5.553058349609375,-5.114658355712891,7.290631294250488,-3.670290946960449
1731409787915863600,5.562863525390625,-5.119443893432617,7.3002028465271,-3.6798620223999023
1731409787925668000,5.572668212890625,-5.136193752288818,7.3145599365234375,-3.6798620223999023
1731409787935473400,5.582473388671875,-5.160121917724609,7.324131011962891,-3.6487553119659424
1731409787945279500,5.592279541015625,-5.157729148864746,7.3313093185424805,-3.6125640869140625
1731409787955084800,5.602084716796875,-5.143372058868408,7.312166690826416,-3.5910286903381348
1731409787964889300,5.611889404296875,-5.1529436111450195,7.264310359954834,-3.614956855773926
1731409787974694700,5.621694580078125,-5.186442852020264,7.273881912231445,-3.6511483192443848
1731409787984501000,5.6315009765625,-5.205585479736328,7.276274681091309,-3.6798620223999023
1731409787994306300,5.641306396484375,-5.236692428588867,7.290631294250488,-3.6870405673980713
1731409788004110800,5.65111083984375,-5.236692428588867,7.309773921966553,-3.6583266258239746
1731409788013916200,5.660916259765625,-5.222335338592529,7.326523780822754,-3.6197423934936523
1731409788023722200,5.67072216796875,-5.2151570320129395,7.3313093185424805,-3.631706476211548
1731409788033527600,5.680527587890625,-5.150550842285156,7.3384881019592285,-3.6655051708221436
1731409788043332000,5.69033203125,-5.148158073425293,7.321738243103027,-3.6655051708221436
1731409788053137400,5.700137451171875,-5.1768717765808105,7.312166690826416,-3.6559338569641113
1731409788062943700,5.70994384765625,-5.200799942016602,7.312166690826416,-3.638885021209717
1731409788072749000,5.7197490234375,-5.227120876312256,7.309773921966553,-3.6583266258239746
1731409788082553300,5.72955322265625,-5.224728107452393,7.302595615386963,-3.6894333362579346
1731409788092359000,5.73935888671875,-5.231906890869141,7.285845756530762,-3.7037904262542725
1731409788102165000,5.7491650390625,-5.260620594024658,7.264310359954834,-3.691826343536377
1731409788111970300,5.75897021484375,-5.267798900604248,7.259524822235107,-3.691826343536377
1731409788121774800,5.76877490234375,-5.2390851974487305,7.257132053375244,-3.699004650115967
1731409788131580200,5.778580078125,-5.1768717765808105,7.283452987670898,-3.699004650115967
1731409788141386200,5.78838623046875,-5.155336380004883,7.312166690826416,-3.7061831951141357
1731409788151191800,5.79819189453125,-5.133800983428955,7.316952705383301,-3.715754508972168
1731409788160996000,5.80799609375,-5.164907455444336,7.316952705383301,-3.691826343536377
1731409788170801700,5.8178017578125,-5.2390851974487305,7.324131011962891,-3.691826343536377
1731409788180607700,5.827607666015625,-5.277370452880859,7.326523780822754,-3.6631124019622803
1731409788190413000,5.8374130859375,-5.2390851974487305,7.297810077667236,-3.6487553119659424
1731409788200217600,5.847217529296875,-5.150550842285156,7.194918632507324,-3.6870405673980713
1731409788210023000,5.85702294921875,-5.0928239822387695,7.166204929351807,-3.715754508972168
1731409788219829000,5.8668291015625,-5.148158073425293,7.2212395668029785,-3.7181472778320312
1731409788229634300,5.87663427734375,-5.188836097717285,7.3073811531066895,-3.660719633102417
1731409788239438800,5.88643896484375,-5.162514686584473,7.357630729675293,-3.6436707973480225
1731409788249244200,5.896244140625,-5.131408214569092,7.343273639678955,-3.6631124019622803
1731409788259050500,5.906050537109375,-5.107180595397949,7.312166690826416,-3.6583266258239746
1731409788268855800,5.915855712890625,-5.1218366622924805,7.302595615386963,-3.6822550296783447
1731409788278660400,5.925660400390625,-5.174479007720947,7.316952705383301,-3.715754508972168
1731409788288465700,5.935465576171875,-5.186442852020264,7.324131011962891,-3.749253988265991
1731409788298271700,5.945271728515625,-5.133800983428955,7.345666408538818,-3.7660038471221924
1731409788308077000,5.9550771484375,-5.090431213378906,7.383951663970947,-3.7420754432678223
1731409788317881600,5.964881591796875,-5.054538726806641,7.436593532562256,-3.7253258228302
1731409788327687000,5.97468701171875,-5.066503047943115,7.427022457122803,-3.6942191123962402
1731409788337493000,5.984492919921875,-5.117051124572754,7.388737201690674,-3.699004650115967
1731409788347298300,5.99429833984375,-5.124229907989502,7.405487060546875,-3.6655051708221436
1731409788357102800,6.004102783203125,-5.095216751098633,7.388737201690674,-3.667897939682007
1731409788366908400,6.013908447265625,-5.0928239822387695,7.391129970550537,-3.699004650115967
1731409788376714500,6.023714599609375,-5.126622676849365,7.391129970550537,-3.7612180709838867
1731409788386519800,6.033519775390625,-5.112265586853027,7.376772880554199,-3.7923247814178467
1731409788396324400,6.043324462890625,-5.1218366622924805,7.3552374839782715,-3.78753924369812
1731409788406129700,6.053129638671875,-5.114658355712891,7.364809036254883,-3.746861219406128
1731409788415935700,6.062935791015625,-5.083252429962158,7.381558895111084,-3.6798620223999023
1731409788425741000,6.072740966796875,-5.0377888679504395,7.395915508270264,-3.6460635662078857
1731409788435545600,6.082545654296875,-5.0449676513671875,7.403094291687012,-3.617349624633789
1731409788445351000,6.092350830078125,-5.117051124572754,7.3624162673950195,-3.614956855773926
1731409788455157000,6.102156982421875,-5.1529436111450195,7.336095333099365,-3.6293137073516846
1731409788464962300,6.11196240234375,-5.196014404296875,7.316952705383301,-3.675076484680176
1731409788474766800,6.121766845703125,-5.191228866577148,7.319345474243164,-3.7133617401123047
1731409788484572400,6.131572509765625,-5.169693470001221,7.3384881019592285,-3.715754508972168
1731409788494378500,6.14137841796875,-5.112265586853027,7.367201805114746,-3.699004650115967
1731409788504183800,6.151183837890625,-5.059324264526367,7.383951663970947,-3.6559338569641113
1731409788513988400,6.16098828125,-5.0688958168029785,7.371987342834473,-3.5958142280578613
1731409788523793700,6.170793701171875,-5.109573841094971,7.336095333099365,-3.562314748764038
1731409788533599700,6.180599853515625,-5.1218366622924805,7.316952705383301,-3.57906436920166
1731409788543405000,6.190405029296875,-5.1290154457092285,7.316952705383301,-3.6053855419158936
1731409788553209600,6.200209716796875,-5.136193752288818,7.316952705383301,-3.675076484680176
1731409788563015000,6.210014892578125,-5.119443893432617,7.333702087402344,-3.7348971366882324
1731409788572821200,6.2198212890625,-5.107180595397949,7.340880870819092,-3.746861219406128
1731409788582626600,6.22962646484375,-5.114658355712891,7.367201805114746,-3.7061831951141357
1731409788592430800,6.239430908203125,-5.102395057678223,7.403094291687012,-3.675076484680176
1731409788602236400,6.249236328125,-5.083252429962158,7.405487060546875,-3.6436707973480225
1731409788612042500,6.25904248046875,-5.059324264526367,7.400701522827148,-3.5982069969177246
1731409788621847800,6.268847900390625,-4.987539768218994,7.391129970550537,-3.5886356830596924
1731409788631652400,6.27865234375,-4.96839714050293,7.367201805114746,-3.6125640869140625
1731409788641457700,6.288457763671875,-5.021039009094238,7.369594573974609,-3.607778310775757
1731409788651263700,6.298263671875,-5.095216751098633,7.403094291687012,-3.6364922523498535
1731409788661069000,6.308069091796875,-5.049753189086914,7.3935227394104,-3.6655051708221436
1731409788670873600,6.31787353515625,-4.942076206207275,7.360023498535156,-3.6894333362579346
1731409788680679000,6.327678955078125,-4.875077247619629,7.360023498535156,-3.722932815551758
1731409788690485200,6.3374853515625,-4.9133620262146,7.3935227394104,-3.6966118812561035
1731409788700290600,6.34729052734375,-4.973182678222656,7.427022457122803,-3.6487553119659424
1731409788710094800,6.3570947265625,-5.02343225479126,7.450950622558594,-3.6221351623535156
1731409788719900400,6.366900390625,-5.090431213378906,7.436593532562256,-3.638885021209717
1731409788729706500,6.37670654296875,-5.124229907989502,7.398308277130127,-3.6870405673980713
1731409788739511800,6.38651171875,-5.080859661102295,7.369594573974609,-3.7612180709838867
1731409788749316400,6.39631640625,-5.0377888679504395,7.388737201690674,-3.809074640274048
1731409788759121700,6.40612158203125,-5.018646240234375,7.441379547119141,-3.7827534675598145
1731409788768927700,6.415927734375,-4.958825588226318,7.479664325714111,-3.7612180709838867
1731409788778733000,6.425733154296875,-4.918148040771484,7.51077127456665,-3.7444684505462646
1731409788788537600,6.43553759765625,-4.925326347351074,7.505985736846924,-3.73250412940979
1731409788798343000,6.445343017578125,-4.949254512786865,7.491628646850586,-3.749253988265991
1731409788808149000,6.45514892578125,-4.937290191650391,7.462914943695068,-3.777967929840088
1731409788817954300,6.464954345703125,-4.954040050506592,7.427022457122803,-3.7851462364196777
1731409788827758800,6.4747587890625,-5.001896858215332,7.403094291687012,-3.7851462364196777
1731409788837564400,6.484564453125,-5.03061056137085,7.415058135986328,-3.7612180709838867
1731409788847370500,6.49437060546875,-5.018646240234375,7.431807994842529,-3.7660038471221924
1731409788857175800,6.50417578125,-5.016253471374512,7.434200763702393,-3.746861219406128
1731409788866980400,6.51398046875,-5.021039009094238,7.436593532562256,-3.699004650115967
1731409788876785700,6.52378564453125,-4.985146999359131,7.407879829406738,-3.6460635662078857
1731409788886591700,6.533591796875,-4.9516472816467285,7.369594573974609,-3.6487553119659424
1731409788896397000,6.54339697265625,-4.9516472816467285,7.345666408538818,-3.653541088104248
1731409788906201600,6.55320166015625,-4.9755754470825195,7.348059177398682,-3.6340994834899902
1731409788916007000,6.5630068359375,-5.009075164794922,7.371987342834473,-3.593421459197998
1731409788925813000,6.57281298828125,-5.004289627075195,7.412665367126465,-3.57906436920166
1731409788935618300,6.582618408203125,-5.013860702514648,7.446165084838867,-3.562314748764038
1731409788945422800,6.5924228515625,-5.025825023651123,7.438986301422119,-3.617349624633789
1731409788955228200,6.602228271484375,-5.011467933654785,7.443772315979004,-3.6942191123962402
1731409788965034200,6.6120341796875,-4.989932537078857,7.446165084838867,-3.7540395259857178
1731409788974839800,6.62183984375,-4.9755754470825195,7.438986301422119,-3.7755749225616455
1731409788984644000,6.63164404296875,-4.956432819366455,7.458128929138184,-3.749253988265991
1731409788994449700,6.64144970703125,-4.966004371643066,7.498806953430176,-3.660719633102417
1731409789004255700,6.651255859375,-4.930111885070801,7.503592491149902,-3.631706476211548
1731409789014061000,6.66106103515625,-4.918148040771484,7.51077127456665,-3.6221351623535156
1731409789023865600,6.670865478515625,-4.946861743927002,7.51794958114624,-3.64127779006958
1731409789033671000,6.6806708984375,-4.9277191162109375,7.515556812286377,-3.6942191123962402
1731409789043477000,6.69047705078125,-4.891826629638672,7.505985736846924,-3.770789384841919
1731409789053282300,6.7002822265625,-4.910969257354736,7.508378505706787,-3.81864595413208
1731409789063086800,6.7100869140625,-4.966004371643066,7.508378505706787,-3.8473596572875977
1731409789072892200,6.71989208984375,-4.980361461639404,7.508378505706787,-3.828217029571533
1731409789082698200,6.7296982421875,-5.009075164794922,7.529913902282715,-3.7731821537017822
1731409789092503600,6.739503662109375,-4.9995036125183105,7.52512788772583,-3.73250412940979
1731409789102308000,6.74930810546875,-4.96839714050293,7.501199722290039,-3.6798620223999023
1731409789112113400,6.759113525390625,-4.987539768218994,7.498806953430176,-3.653541088104248
1731409789121919500,6.76891943359375,-4.994718074798584,7.515556812286377,-3.6655051708221436
1731409789131725000,6.77872509765625,-4.939683437347412,7.462914943695068,-3.7588253021240234
1731409789141529300,6.788529296875,-4.884648323059082,7.407879829406738,-3.828217029571533
1731409789151335000,6.7983349609375,-4.865505695343018,7.400701522827148,-3.859323740005493
1731409789161141000,6.80814111328125,-4.918148040771484,7.431807994842529,-3.7971103191375732
1731409789170946300,6.8179462890625,-4.994718074798584,7.486843109130859,-3.6798620223999023
1731409789180750800,6.827750732421875,-5.054538726806641,7.474878787994385,-3.5886356830596924
1731409789190556200,6.83755615234375,-5.078466892242432,7.450950622558594,-3.6053855419158936
1731409789200362200,6.8473623046875,-5.049753189086914,7.458128929138184,-3.6631124019622803
1731409789210167600,6.85716748046875,-5.028217792510986,7.465307712554932,-3.73250412940979
1731409789219972000,6.86697216796875,-5.011467933654785,7.482057094573975,-3.777967929840088
1731409789229777400,6.87677734375,-4.939683437347412,7.503592491149902,-3.777967929840088
1731409789239583500,6.88658349609375,-4.820042133331299,7.5203423500061035,-3.7516467571258545
1731409789249388800,6.896388916015625,-4.745864391326904,7.529913902282715,-3.670290946960449
1731409789259193300,6.906193359375,-4.784149646759033,7.52512788772583,-3.586242914199829
1731409789268998700,6.91599853515625,-4.889433860778809,7.498806953430176,-3.545564889907837
1731409789278805000,6.925804931640625,-4.946861743927002,7.491628646850586,-3.552743434906006
1731409789288610300,6.9356103515625,-4.970789909362793,7.470093250274658,-3.569493293762207
1731409789298414600,6.94541455078125,-4.96839714050293,7.446165084838867,-3.6293137073516846
1731409789308220200,6.95522021484375,-4.987539768218994,7.431807994842529,-3.6822550296783447
1731409789318026200,6.965026123046875,-4.9995036125183105,7.422236919403076,-3.7348971366882324
1731409789327831600,6.97483154296875,-4.987539768218994,7.4246296882629395,-3.7516467571258545
1731409789337636000,6.984635986328125,-4.9755754470825195,7.429415225982666,-3.70139741897583
1731409789347441400,6.99444140625,-5.001896858215332,7.427022457122803,-3.6583266258239746
1731409789357247500,7.00424755859375,-4.994718074798584,7.429415225982666,-3.6293137073516846
1731409789367052800,7.014052734375,-4.980361461639404,7.415058135986328,-3.61017107963562
1731409789376857300,7.023857421875,-4.982754230499268,7.407879829406738,-3.6559338569641113
1731409789386662700,7.03366259765625,-5.006682395935059,7.379166126251221,-3.677469253540039
1731409789396468700,7.04346875,-5.03061056137085,7.352844715118408,-3.691826343536377
1731409789406274000,7.053274169921875,-5.035396099090576,7.333702087402344,-3.691826343536377
1731409789416078600,7.06307861328125,-5.02343225479126,7.3384881019592285,-3.684647798538208
1731409789425884000,7.0728837890625,-5.0449676513671875,7.3863444328308105,-3.660719633102417
1731409789435690000,7.08268994140625,-5.052145957946777,7.427022457122803,-3.6364922523498535
1731409789445495300,7.092495361328125,-5.0377888679504395,7.407879829406738,-3.6269209384918213
1731409789455299800,7.1022998046875,-5.028217792510986,7.400701522827148,-3.6559338569641113
1731409789465105200,7.112105224609375,-5.02343225479126,7.391129970550537,-3.670290946960449
1731409789474911500,7.121911376953125,-5.006682395935059,7.3624162673950195,-3.73250412940979
1731409789484716800,7.131716796875,-4.994718074798584,7.345666408538818,-3.770789384841919
1731409789494521000,7.14152099609375,-4.9995036125183105,7.340880870819092,-3.7731821537017822
1731409789504326700,7.15132666015625,-5.028217792510986,7.391129970550537,-3.7301113605499268
1731409789514132700,7.1611328125,-5.052145957946777,7.446165084838867,-3.7037904262542725
1731409789523938000,7.17093798828125,-5.083252429962158,7.486843109130859,-3.6894333362579346
1731409789533742600,7.18074267578125,-5.0688958168029785,7.438986301422119,-3.6798620223999023
1731409789543548000,7.1905478515625,-5.0688958168029785,7.400701522827148,-3.70139741897583
1731409789553354000,7.20035400390625,-5.049753189086914,7.388737201690674,-3.7444684505462646
1731409789563159300,7.2101591796875,-5.035396099090576,7.364809036254883,-3.7899320125579834
1731409789572963800,7.2199638671875,-5.047360420227051,7.371987342834473,-3.8306100368499756
1731409789582769200,7.22976904296875,-5.104787826538086,7.405487060546875,-3.811467409133911
1731409789592575200,7.2395751953125,-5.119443893432617,7.470093250274658,-3.749253988265991
1731409789602380500,7.249380615234375,-5.03061056137085,7.410272598266602,-3.7061831951141357
1731409789612185000,7.25918505859375,-4.89900541305542,7.352844715118408,-3.7372899055480957
1731409789621990400,7.268990478515625,-4.85114860534668,7.357630729675293,-3.7540395259857178
1731409789631796500,7.27879638671875,-4.9277191162109375,7.376772880554199,-3.684647798538208
1731409789641601800,7.288601806640625,-5.035396099090576,7.374380111694336,-3.699004650115967
1731409789651406300,7.29840625,-5.126622676849365,7.364809036254883,-3.7612180709838867
1731409789661211600,7.308211669921875,-5.155336380004883,7.379166126251221,-3.7827534675598145
1731409789671017700,7.318017822265625,-5.0688958168029785,7.405487060546875,-3.801896095275879
1731409789680823000,7.327822998046875,-4.958825588226318,7.443772315979004,-3.82582426071167
1731409789690627600,7.337627685546875,-4.896612644195557,7.489235877990723,-3.7683966159820557
1731409789700433000,7.347432861328125,-4.784149646759033,7.522735118865967,-3.7277185916900635
1731409789710239000,7.357239013671875,-4.71954345703125,7.505985736846924,-3.70139741897583
1731409789720044500,7.36704443359375,-4.772185802459717,7.4964141845703125,-3.7348971366882324
1731409789729848800,7.376848876953125,-4.89900541305542,7.482057094573975,-3.78753924369812
1731409789739654400,7.386654296875,-4.96839714050293,7.450950622558594,-3.7995033264160156
1731409789749460500,7.39646044921875,-4.958825588226318,7.453343391418457,-3.79471755027771
1731409789759265800,7.406265869140625,-4.942076206207275,7.479664325714111,-3.7588253021240234
1731409789769070000,7.416070068359375,-4.9516472816467285,7.4724860191345215,-3.7516467571258545
1731409789778875600,7.425875732421875,-4.963611602783203,7.479664325714111,-3.7420754432678223
1731409789788681700,7.435681640625,-4.9516472816467285,7.482057094573975,-3.780360698699951
1731409789798487000,7.445487060546875,-4.910969257354736,7.465307712554932,-3.8210387229919434
1731409789808291600,7.45529150390625,-4.908576488494873,7.441379547119141,-3.81864595413208
1731409789818097000,7.465096923828125,-4.884648323059082,7.443772315979004,-3.809074640274048
1731409789827903000,7.474903076171875,-4.891826629638672,7.419844150543213,-3.7851462364196777
1731409789837708300,7.484708251953125,-4.894219398498535,7.4246296882629395,-3.7444684505462646
1731409789847512800,7.494512939453125,-4.884648323059082,7.410272598266602,-3.7181472778320312
1731409789857318100,7.504318115234375,-4.884648323059082,7.415058135986328,-3.6583266258239746
1731409789867124200,7.514124267578125,-4.908576488494873,7.3863444328308105,-3.6340994834899902
1731409789876929500,7.523929443359375,-4.9133620262146,7.383951663970947,-3.6436707973480225
1731409789886734000,7.533734130859375,-4.90618371963501,7.369594573974609,-3.667897939682007
1731409789896539400,7.543539306640625,-4.915754795074463,7.350451946258545,-3.739682674407959
1731409789906345500,7.553345458984375,-4.942076206207275,7.350451946258545,-3.76361083984375
1731409789916150800,7.56315087890625,-4.987539768218994,7.364809036254883,-3.76361083984375
1731409789925955300,7.572955322265625,-4.994718074798584,7.381558895111084,-3.749253988265991
1731409789935760600,7.5827607421875,-4.9995036125183105,7.379166126251221,-3.7348971366882324
1731409789945566700,7.592566650390625,-4.954040050506592,7.419844150543213,-3.7037904262542725
1731409789955372000,7.6023720703125,-4.934897422790527,7.415058135986328,-3.6894333362579346
1731409789965176600,7.612176513671875,-4.96839714050293,7.398308277130127,-3.675076484680176
1731409789974982000,7.62198193359375,-5.004289627075195,7.410272598266602,-3.699004650115967
1731409789984788200,7.631788330078125,-4.987539768218994,7.4246296882629395,-3.7301113605499268
1731409789994593500,7.641593505859375,-4.963611602783203,7.441379547119141,-3.749253988265991
1731409790004397800,7.651397705078125,-4.942076206207275,7.458128929138184,-3.7348971366882324
1731409790014203100,7.661203125,-4.96839714050293,7.470093250274658,-3.7037904262542725
1731409790024009500,7.671009521484375,-5.006682395935059,7.438986301422119,-3.675076484680176
1731409790033814800,7.680814697265625,-5.018646240234375,7.419844150543213,-3.6966118812561035
1731409790043619000,7.690619140625,-5.03061056137085,7.434200763702393,-3.691826343536377
1731409790053424600,7.700424560546875,-5.049753189086914,7.441379547119141,-3.699004650115967
1731409790063230700,7.710230712890625,-4.966004371643066,7.3863444328308105,-3.722932815551758
1731409790073036000,7.7200361328125,-4.841577529907227,7.326523780822754,-3.7755749225616455
1731409790082840600,7.729840576171875,-4.848755836486816,7.340880870819092,-3.76361083984375
1731409790092646000,7.73964599609375,-4.958825588226318,7.383951663970947,-3.6364922523498535
1731409790102452000,7.749451904296875,-5.064109802246094,7.434200763702393,-3.5120654106140137
1731409790112257300,7.75925732421875,-5.136193752288818,7.374380111694336,-3.5192439556121826
1731409790122061800,7.769061767578125,-5.083252429962158,7.304988384246826,-3.5958142280578613
1731409790131867100,7.7788671875,-4.989932537078857,7.336095333099365,-3.7253258228302
1731409790141673200,7.788673095703125,-4.977968215942383,7.369594573974609,-3.81864595413208
1731409790151478500,7.798478515625,-4.997110843658447,7.422236919403076,-3.833002805709839
1731409790161283000,7.808282958984375,-4.942076206207275,7.470093250274658,-3.7827534675598145
1731409790171088400,7.81808837890625,-4.863112926483154,7.489235877990723,-3.70139741897583
1731409790180894500,7.82789453125,-4.858327388763428,7.460521697998047,-3.708575963973999
1731409790190699800,7.83769970703125,-4.939683437347412,7.436593532562256,-3.7444684505462646
1731409790200504300,7.84750439453125,-5.016253471374512,7.374380111694336,-3.739682674407959
1731409790210309600,7.8573095703125,-5.054538726806641,7.343273639678955,-3.7301113605499268
1731409790220115700,7.86711572265625,-5.03061056137085,7.3384881019592285,-3.7301113605499268
1731409790229921000,7.876921142578125,-5.028217792510986,7.364809036254883,-3.722932815551758
1731409790239725600,7.8867255859375,-5.028217792510986,7.412665367126465,-3.7205400466918945
1731409790249531000,7.89653076171875,-5.006682395935059,7.417450904846191,-3.715754508972168
1731409790259337000,7.9063369140625,-4.970789909362793,7.412665367126465,-3.6894333362579346
1731409790269142300,7.916142333984375,-4.963611602783203,7.388737201690674,-3.6631124019622803
1731409790278946800,7.92594677734375,-4.985146999359131,7.374380111694336,-3.677469253540039
1731409790288752000,7.935752197265625,-5.0377888679504395,7.348059177398682,-3.7301113605499268
1731409790298558200,7.94555810546875,-5.102395057678223,7.326523780822754,-3.770789384841919
1731409790308363500,7.955363525390625,-5.136193752288818,7.326523780822754,-3.7660038471221924
1731409790318168000,7.96516796875,-5.191228866577148,7.333702087402344,-3.75643253326416
1731409790327973400,7.974973388671875,-5.236692428588867,7.343273639678955,-3.715754508972168
1731409790337779500,7.984779541015625,-5.222335338592529,7.379166126251221,-3.691826343536377
1731409790347584800,7.994584716796875,-5.155336380004883,7.415058135986328,-3.6631124019622803
1731409790357389300,8.004389404296875,-5.047360420227051,7.434200763702393,-3.6726837158203125
1731409790367194600,8.014194580078126,-4.958825588226318,7.427022457122803,-3.7133617401123047
1731409790377000700,8.024000732421875,-4.884648323059082,7.429415225982666,-3.7348971366882324
1731409790386806000,8.033805908203124,-4.877470016479492,7.438986301422119,-3.7612180709838867
1731409790396610600,8.043610595703125,-4.9133620262146,7.436593532562256,-3.770789384841919
1731409790406416000,8.053415771484374,-4.963611602783203,7.4246296882629395,-3.7372899055480957
1731409790416222000,8.063221923828126,-4.987539768218994,7.412665367126465,-3.7133617401123047
1731409790426027300,8.07302734375,-5.011467933654785,7.441379547119141,-3.6583266258239746
1731409790435831800,8.082831787109376,-5.025825023651123,7.441379547119141,-3.6583266258239746
1731409790445637000,8.09263720703125,-5.047360420227051,7.443772315979004,-3.6487553119659424
1731409790455443200,8.102443115234376,-5.059324264526367,7.45573616027832,-3.6726837158203125
1731409790465248500,8.11224853515625,-5.049753189086914,7.462914943695068,-3.7061831951141357
1731409790475053000,8.122052978515624,-5.009075164794922,7.45573616027832,-3.7181472778320312
1731409790484858400,8.1318583984375,-4.973182678222656,7.422236919403076,-3.7253258228302
1731409790494664700,8.141664794921875,-4.966004371643066,7.410272598266602,-3.7037904262542725
1731409790504470000,8.151469970703126,-5.049753189086914,7.419844150543213,-3.677469253540039
1731409790514274300,8.1612744140625,-5.100002288818359,7.417450904846191,-3.6487553119659424
1731409790524079900,8.171079833984376,-5.035396099090576,7.360023498535156,-3.653541088104248
1731409790533886000,8.180885986328125,-4.922933578491211,7.309773921966553,-3.6942191123962402
1731409790543691300,8.190691162109376,-4.966004371643066,7.326523780822754,-3.7109687328338623
1731409790553495600,8.20049560546875,-5.056931495666504,7.364809036254883,-3.6487553119659424
1731409790563301000,8.210301025390624,-5.124229907989502,7.3935227394104,-3.576671600341797
1731409790573107200,8.220107177734375,-5.169693470001221,7.3624162673950195,-3.5814573764801025
1731409790582912500,8.22991259765625,-5.133800983428955,7.304988384246826,-3.638885021209717
1731409790592716800,8.239716796875,-5.090431213378906,7.321738243103027,-3.7181472778320312
1731409790602522400,8.2495224609375,-5.112265586853027,7.3552374839782715,-3.78753924369812
1731409790612328400,8.259328369140626,-5.119443893432617,7.3863444328308105,-3.804288864135742
1731409790622133800,8.2691337890625,-5.040181636810303,7.434200763702393,-3.749253988265991
1731409790631938000,8.27893798828125,-4.9277191162109375,7.446165084838867,-3.6822550296783447
1731409790641743600,8.28874365234375,-4.884648323059082,7.427022457122803,-3.6583266258239746
1731409790651549700,8.2985498046875,-4.9516472816467285,7.4246296882629395,-3.6364922523498535
1731409790661355000,8.30835498046875,-5.025825023651123,7.412665367126465,-3.638885021209717
1731409790671159300,8.3181591796875,-5.059324264526367,7.403094291687012,-3.660719633102417
1731409790680964900,8.32796484375,-5.056931495666504,7.388737201690674,-3.677469253540039
1731409790690771000,8.33777099609375,-5.064109802246094,7.388737201690674,-3.70139741897583
1731409790700576300,8.347576171875,-5.042574405670166,7.410272598266602,-3.7277185916900635
1731409790710380500,8.357380615234375,-5.056931495666504,7.388737201690674,-3.7420754432678223
1731409790720186000,8.36718603515625,-5.052145957946777,7.369594573974609,-3.7205400466918945
1731409790729992200,8.3769921875,-5.035396099090576,7.403094291687012,-3.6631124019622803
1731409790739797500,8.386797607421874,-5.025825023651123,7.3935227394104,-3.6197423934936523
1731409790749601800,8.396601806640625,-5.025825023651123,7.379166126251221,-3.600599765777588
1731409790759407400,8.406407470703124,-5.021039009094238,7.383951663970947,-3.5742788314819336
1731409790769213400,8.41621337890625,-5.028217792510986,7.371987342834473,-3.6269209384918213
1731409790779018800,8.426018798828125,-5.064109802246094,7.3624162673950195,-3.6894333362579346
1731409790788823000,8.435822998046875,-5.088038444519043,7.364809036254883,-3.7205400466918945
1731409790798628600,8.445628662109375,-5.066503047943115,7.3624162673950195,-3.73250412940979
1731409790808434700,8.4554345703125,-5.018646240234375,7.357630729675293,-3.7061831951141357
1731409790818240000,8.465239990234375,-5.004289627075195,7.376772880554199,-3.6631124019622803
1731409790828044300,8.475044189453126,-4.9995036125183105,7.415058135986328,-3.6269209384918213
1731409790837849900,8.484849853515625,-4.982754230499268,7.429415225982666,-3.638885021209717
1731409790847656000,8.494656005859374,-4.989932537078857,7.431807994842529,-3.6487553119659424
1731409790857461200,8.504461181640625,-4.9755754470825195,7.412665367126465,-3.6655051708221436
1731409790867265800,8.514265869140624,-4.963611602783203,7.407879829406738,-3.6870405673980713
1731409790877071000,8.524071044921875,-4.96121883392334,7.400701522827148,-3.7037904262542725
1731409790886877200,8.533877197265625,-4.966004371643066,7.391129970550537,-3.699004650115967
1731409790896682500,8.5436826171875,-4.9995036125183105,7.3863444328308105,-3.691826343536377
1731409790906487000,8.553487060546875,-5.0377888679504395,7.398308277130127,-3.70139741897583
1731409790916292400,8.563292236328126,-5.064109802246094,7.412665367126465,-3.7181472778320312
1731409790926098400,8.573098388671875,-5.059324264526367,7.438986301422119,-3.715754508972168
1731409790935903700,8.58290380859375,-5.021039009094238,7.458128929138184,-3.7372899055480957
1731409790945708000,8.5927080078125,-4.980361461639404,7.429415225982666,-3.7588253021240234
1731409790955513600,8.602513671875,-4.970789909362793,7.4246296882629395,-3.7540395259857178
1731409790965319700,8.612319580078125,-5.033003330230713,7.436593532562256,-3.7755749225616455
1731409790975125000,8.622125,-5.078466892242432,7.458128929138184,-3.804288864135742
1731409790984929300,8.63192919921875,-5.033003330230713,7.419844150543213,-3.8210387229919434
1731409790994734800,8.64173486328125,-4.901398181915283,7.369594573974609,-3.8162529468536377
1731409791004541000,8.651541015625,-4.84397029876709,7.369594573974609,-3.81864595413208
1731409791014346200,8.66134619140625,-4.920540809631348,7.431807994842529,-3.739682674407959
1731409791024150800,8.67115087890625,-5.006682395935059,7.470093250274658,-3.6559338569641113
1731409791033956000,8.6809560546875,-5.052145957946777,7.429415225982666,-3.6631124019622803
1731409791043762200,8.69076220703125,-5.016253471374512,7.395915508270264,-3.7301113605499268
1731409791053567500,8.7005673828125,-4.982754230499268,7.383951663970947,-3.809074640274048
1731409791063372000,8.7103720703125,-5.035396099090576,7.417450904846191,-3.9095730781555176
1731409791073177300,8.72017724609375,-5.02343225479126,7.470093250274658,-3.935894250869751
1731409791082983400,8.7299833984375,-4.9516472816467285,7.52512788772583,-3.895216226577759
1731409791092788700,8.739788818359376,-4.8559346199035645,7.542177200317383,-3.7971103191375732
1731409791102593300,8.74959326171875,-4.803292274475098,7.513164043426514,-3.7133617401123047
1731409791112398600,8.759398681640626,-4.858327388763428,7.501199722290039,-3.7133617401123047
1731409791122204700,8.76920458984375,-4.954040050506592,7.460521697998047,-3.7683966159820557
1731409791132010000,8.779010009765624,-4.985146999359131,7.436593532562256,-3.8066816329956055
1731409791141814500,8.788814453125,-4.980361461639404,7.419844150543213,-3.835395574569702
1731409791151619800,8.798619873046874,-4.96121883392334,7.422236919403076,-3.8234314918518066
1731409791161426000,8.808426025390625,-4.994718074798584,7.470093250274658,-3.780360698699951
1731409791171231200,8.818231201171875,-4.987539768218994,7.474878787994385,-3.7660038471221924
1731409791181035800,8.828035888671875,-4.908576488494873,7.446165084838867,-3.7660038471221924
1731409791190841000,8.837841064453125,-4.875077247619629,7.427022457122803,-3.7755749225616455
1731409791200647200,8.847647216796876,-4.887041091918945,7.400701522827148,-3.7995033264160156
1731409791210452500,8.857452392578125,-4.939683437347412,7.364809036254883,-3.7995033264160156
1731409791220257000,8.867257080078126,-4.9755754470825195,7.3624162673950195,-3.78753924369812
1731409791230062300,8.877062255859375,-4.9755754470825195,7.369594573974609,-3.7612180709838867
1731409791239868400,8.886868408203124,-5.001896858215332,7.419844150543213,-3.722932815551758
1731409791249673700,8.896673828125,-4.994718074798584,7.443772315979004,-3.7133617401123047
1731409791259478300,8.906478271484374,-4.9516472816467285,7.453343391418457,-3.746861219406128
1731409791269283600,8.91628369140625,-4.930111885070801,7.4485578536987305,-3.7827534675598145
1731409791279089700,8.926089599609375,-4.944468975067139,7.450950622558594,-3.81864595413208
1731409791288895000,8.93589501953125,-4.939683437347412,7.429415225982666,-3.840181350708008
1731409791298699300,8.94569921875,-4.970789909362793,7.419844150543213,-3.82582426071167
1731409791308504800,8.9555048828125,-4.982754230499268,7.403094291687012,-3.8377883434295654
1731409791318311000,8.965310791015625,-4.963611602783203,7.403094291687012,-3.8306100368499756
1731409791328116200,8.9751162109375,-4.96121883392334,7.438986301422119,-3.7660038471221924
1731409791337920500,8.98492041015625,-4.932504653930664,7.4485578536987305,-3.7301113605499268
1731409791347726000,8.99472607421875,-4.891826629638672,7.450950622558594,-3.739682674407959
1731409791357532200,9.0045322265625,-4.863112926483154,7.443772315979004,-3.7612180709838867
1731409791367337500,9.01433740234375,-4.877470016479492,7.415058135986328,-3.801896095275879
1731409791377141800,9.024141845703125,-4.920540809631348,7.398308277130127,-3.8138601779937744
1731409791386947300,9.033947265625,-4.956432819366455,7.391129970550537,-3.7971103191375732
1731409791396753400,9.04375341796875,-4.96839714050293,7.431807994842529,-3.7683966159820557
1731409791406558700,9.053558837890625,-4.977968215942383,7.412665367126465,-3.7420754432678223
1731409791416363000,9.063363037109376,-4.963611602783203,7.410272598266602,-3.7253258228302
1731409791426168300,9.073168212890625,-4.96121883392334,7.398308277130127,-3.73250412940979
1731409791435974700,9.082974609375,-4.994718074798584,7.391129970550537,-3.746861219406128
1731409791445780000,9.092780029296875,-5.001896858215332,7.415058135986328,-3.75643253326416
1731409791455584300,9.102584228515624,-4.910969257354736,7.3863444328308105,-3.7755749225616455
1731409791465389600,9.1123896484375,-4.78893518447876,7.336095333099365,-3.8210387229919434
1731409791475195600,9.122195556640625,-4.822434902191162,7.357630729675293,-3.828217029571533
1731409791485001000,9.1320009765625,-4.96839714050293,7.417450904846191,-3.7205400466918945
1731409791494805500,9.141805419921875,-5.090431213378906,7.436593532562256,-3.670290946960449
1731409791504610800,9.15161083984375,-5.126622676849365,7.374380111694336,-3.6894333362579346
1731409791514417000,9.1614169921875,-5.102395057678223,7.357630729675293,-3.7612180709838867
1731409791524222200,9.17122216796875,-5.02343225479126,7.364809036254883,-3.866502285003662
1731409791534026800,9.18102685546875,-4.997110843658447,7.376772880554199,-3.9406797885894775
1731409791543832000,9.19083203125,-4.920540809631348,7.427022457122803,-3.9023945331573486
1731409791553638100,9.20063818359375,-4.829613208770752,7.484450340270996,-3.8545382022857666
1731409791563443500,9.210443359375,-4.791328430175781,7.51077127456665,-3.7827534675598145
1731409791573248000,9.220248046875,-4.860720157623291,7.482057094573975,-3.7923247814178467
1731409791583053300,9.23005322265625,-4.932504653930664,7.422236919403076,-3.801896095275879
1731409791592859400,9.239859375,-4.958825588226318,7.376772880554199,-3.801896095275879
1731409791602664700,9.249664794921875,-4.915754795074463,7.350451946258545,-3.7899320125579834
1731409791612469200,9.25946923828125,-4.877470016479492,7.379166126251221,-3.811467409133911
1731409791622274600,9.269274658203125,-4.90618371963501,7.417450904846191,-3.849752426147461
1731409791632080600,9.27908056640625,-4.942076206207275,7.4485578536987305,-3.880859136581421
1731409791641886000,9.288885986328125,-4.949254512786865,7.470093250274658,-3.859323740005493
1731409791651690500,9.2986904296875,-4.9277191162109375,7.474878787994385,-3.79471755027771
1731409791661495800,9.308495849609375,-4.884648323059082,7.450950622558594,-3.7348971366882324
1731409791671302000,9.318302001953125,-4.867898464202881,7.391129970550537,-3.7348971366882324
1731409791681107200,9.328107177734376,-4.877470016479492,7.3384881019592285,-3.770789384841919
1731409791690911700,9.337911865234375,-4.89900541305542,7.3145599365234375,-3.7995033264160156
1731409791700717000,9.347717041015626,-4.954040050506592,7.319345474243164,-3.811467409133911
1731409791710523100,9.357523193359375,-4.994718074798584,7.324131011962891,-3.811467409133911
1731409791720328400,9.367328369140624,-5.004289627075195,7.324131011962891,-3.78753924369812
1731409791730133000,9.377133056640625,-4.954040050506592,7.3552374839782715,-3.7540395259857178
1731409791739938300,9.386938232421874,-4.922933578491211,7.379166126251221,-3.7348971366882324
1731409791749744400,9.396744384765626,-4.9133620262146,7.374380111694336,-3.749253988265991
1731409791759549700,9.4065498046875,-4.9133620262146,7.3624162673950195,-3.7731821537017822
1731409791769354200,9.416354248046876,-4.908576488494873,7.345666408538818,-3.811467409133911
1731409791779159600,9.42615966796875,-4.925326347351074,7.336095333099365,-3.811467409133911
1731409791788965600,9.435965576171874,-4.942076206207275,7.3313093185424805,-3.811467409133911
1731409791798771000,9.44577099609375,-4.946861743927002,7.328916549682617,-3.7995033264160156
1731409791808575500,9.455575439453124,-4.939683437347412,7.364809036254883,-3.7827534675598145
1731409791818380800,9.465380859375,-4.939683437347412,7.395915508270264,-3.7683966159820557
1731409791828187000,9.475186767578125,-4.925326347351074,7.3935227394104,-3.7660038471221924
1731409791837992000,9.484991943359375,-4.946861743927002,7.398308277130127,-3.7755749225616455
1731409791847796500,9.49479638671875,-4.966004371643066,7.367201805114746,-3.8138601779937744
1731409791857602000,9.50460205078125,-4.997110843658447,7.350451946258545,-3.8138601779937744
1731409791867408100,9.514408203125,-4.997110843658447,7.343273639678955,-3.811467409133911
1731409791877213400,9.52421337890625,-4.994718074798584,7.348059177398682,-3.7851462364196777
1731409791887017700,9.534017822265625,-4.989932537078857,7.369594573974609,-3.75643253326416
1731409791896823000,9.543822998046876,-4.987539768218994,7.407879829406738,-3.76361083984375
1731409791906629400,9.55362939453125,-5.001896858215332,7.460521697998047,-3.7348971366882324
1731409791916434400,9.563434326171874,-4.9133620262146,7.450950622558594,-3.7827534675598145
1731409791926239000,9.573239013671875,-4.7386860847473145,7.3863444328308105,-3.8760735988616943
1731409791936044300,9.583044189453124,-4.743471622467041,7.381558895111084,-3.8760735988616943
1731409791945850600,9.5928505859375,-4.867898464202881,7.436593532562256,-3.777967929840088
1731409791955656000,9.602656005859375,-4.985146999359131,7.470093250274658,-3.699004650115967
1731409791965460200,9.612460205078126,-5.052145957946777,7.422236919403076,-3.699004650115967
1731409791975265500,9.622265625,-5.047360420227051,7.391129970550537,-3.7444684505462646
1731409791985071600,9.632071533203124,-4.9755754470825195,7.391129970550537,-3.79471755027771
1731409791994877000,9.641876953125,-4.934897422790527,7.417450904846191,-3.8521454334259033
1731409792004681500,9.651681396484374,-4.922933578491211,7.460521697998047,-3.835395574569702
1731409792014486800,9.66148681640625,-4.848755836486816,7.482057094573975,-3.7971103191375732
1731409792024292900,9.67129296875,-4.776971340179443,7.482057094573975,-3.770789384841919
1731409792034098200,9.68109814453125,-4.78175687789917,7.477271556854248,-3.7827534675598145
1731409792043902700,9.69090283203125,-4.8367919921875,7.453343391418457,-3.801896095275879
1731409792053708000,9.7007080078125,-4.908576488494873,7.441379547119141,-3.7851462364196777
1731409792063514000,9.71051416015625,-4.946861743927002,7.438986301422119,-3.739682674407959
1731409792073319400,9.7203193359375,-4.944468975067139,7.434200763702393,-3.7277185916900635
1731409792083124000,9.7301240234375,-4.934897422790527,7.443772315979004,-3.7348971366882324
1731409792092929300,9.73992919921875,-4.958825588226318,7.462914943695068,-3.79471755027771
1731409792102735400,9.7497353515625,-4.96121883392334,7.4485578536987305,-3.8449668884277344
1731409792112540700,9.759540771484374,-4.956432819366455,7.381558895111084,-3.8473596572875977
1731409792122345200,9.76934521484375,-4.949254512786865,7.388737201690674,-3.8377883434295654
1731409792132150500,9.779150634765625,-4.958825588226318,7.383951663970947,-3.7971103191375732
1731409792141956600,9.78895654296875,-4.9755754470825195,7.395915508270264,-3.746861219406128
1731409792151762000,9.798761962890625,-4.985146999359131,7.415058135986328,-3.6894333362579346
1731409792161566200,9.808566162109376,-4.992325305938721,7.412665367126465,-3.691826343536377
1731409792171371800,9.818371826171875,-4.997110843658447,7.407879829406738,-3.6870405673980713
1731409792181177900,9.828177734375,-5.016253471374512,7.398308277130127,-3.7277185916900635
1731409792190983200,9.837983154296875,-5.004289627075195,7.371987342834473,-3.75643253326416
1731409792200787500,9.847787353515624,-4.994718074798584,7.379166126251221,-3.777967929840088
1731409792210593000,9.857593017578125,-4.966004371643066,7.374380111694336,-3.777967929840088
1731409792220399000,9.867399169921875,-4.963611602783203,7.3935227394104,-3.76361083984375
1731409792230204400,9.877204345703126,-4.956432819366455,7.427022457122803,-3.7277185916900635
1731409792240008700,9.8870087890625,-4.934897422790527,7.441379547119141,-3.715754508972168
1731409792249814000,9.89681396484375,-4.9516472816467285,7.419844150543213,-3.715754508972168
1731409792259620400,9.906620361328125,-4.944468975067139,7.417450904846191,-3.7037904262542725
1731409792269425700,9.91642578125,-4.982754230499268,7.417450904846191,-3.708575963973999
1731409792279230000,9.92622998046875,-4.989932537078857,7.395915508270264,-3.749253988265991
1731409792289035300,9.93603515625,-4.985146999359131,7.3863444328308105,-3.7995033264160156
1731409792298841300,9.94584130859375,-4.973182678222656,7.3624162673950195,-3.7995033264160156
1731409792308646700,9.955646728515624,-4.973182678222656,7.367201805114746,-3.7899320125579834
1731409792318451200,9.965451171875,-4.970789909362793,7.381558895111084,-3.777967929840088
1731409792328256500,9.975256591796875,-4.973182678222656,7.415058135986328,-3.7253258228302
1731409792338062600,9.9850625,-4.954040050506592,7.443772315979004,-3.6870405673980713
1731409792347868000,9.994867919921875,-4.937290191650391,7.431807994842529,-3.6798620223999023
1731409792357672400,10.00467236328125,-5.018646240234375,7.434200763702393,-3.6942191123962402
1731409792367477800,10.014477783203125,-5.112265586853027,7.45573616027832,-3.7348971366882324
1731409792377283800,10.024283935546874,-5.03061056137085,7.419844150543213,-3.7348971366882324
1731409792387089200,10.034089111328125,-4.827220439910889,7.3384881019592285,-3.82582426071167
1731409792396893700,10.043893798828124,-4.750650405883789,7.312166690826416,-3.8688950538635254
1731409792406699000,10.053698974609375,-4.863112926483154,7.357630729675293,-3.7899320125579834
1731409792416505000,10.063505126953125,-4.980361461639404,7.3935227394104,-3.6966118812561035
1731409792426310400,10.073310302734376,-5.0688958168029785,7.400701522827148,-3.670290946960449
1731409792436115000,10.083114990234375,-5.0449676513671875,7.388737201690674,-3.691826343536377
1731409792445920300,10.092920166015626,-4.977968215942383,7.352844715118408,-3.7588253021240234
1731409792455726300,10.102726318359375,-4.920540809631348,7.3313093185424805,-3.801896095275879
1731409792465531400,10.112531494140624,-4.887041091918945,7.350451946258545,-3.828217029571533
1731409792475336000,10.1223359375,-4.882255554199219,7.400701522827148,-3.809074640274048
1731409792485141500,10.1321416015625,-4.889433860778809,7.419844150543213,-3.7683966159820557
1731409792494947600,10.141947509765625,-4.910969257354736,7.458128929138184,-3.739682674407959
1731409792504753000,10.1517529296875,-4.915754795074463,7.470093250274658,-3.7277185916900635
1731409792514557200,10.16155712890625,-4.922933578491211,7.470093250274658,-3.7516467571258545
1731409792524362500,10.171362548828125,-4.915754795074463,7.453343391418457,-3.777967929840088
1731409792534168600,10.18116845703125,-4.887041091918945,7.4246296882629395,-3.801896095275879
1731409792543974000,10.190973876953125,-4.884648323059082,7.410272598266602,-3.8234314918518066
1731409792553778400,10.2007783203125,-4.90618371963501,7.400701522827148,-3.835395574569702
1731409792563583700,10.210583740234375,-4.894219398498535,7.410272598266602,-3.8521454334259033
1731409792573389800,10.220389892578124,-4.875077247619629,7.407879829406738,-3.8473596572875977
1731409792583195100,10.230195068359375,-4.841577529907227,7.462914943695068,-3.8210387229919434
1731409792592999700,10.239999755859374,-4.84397029876709,7.467700481414795,-3.7755749225616455
1731409792602805000,10.249804931640625,-4.860720157623291,7.465307712554932,-3.7253258228302
1731409792612611000,10.259611083984375,-4.875077247619629,7.462914943695068,-3.73250412940979
1731409792622416400,10.26941650390625,-4.882255554199219,7.441379547119141,-3.749253988265991
1731409792632221000,10.279220947265625,-4.894219398498535,7.412665367126465,-3.7851462364196777
1731409792642026200,10.289026123046876,-4.896612644195557,7.400701522827148,-3.828217029571533
1731409792651832300,10.298832275390625,-4.887041091918945,7.395915508270264,-3.8210387229919434
1731409792661637600,10.3086376953125,-4.891826629638672,7.388737201690674,-3.78753924369812
1731409792671442000,10.31844189453125,-4.908576488494873,7.436593532562256,-3.7420754432678223
1731409792681247500,10.32824755859375,-4.9277191162109375,7.465307712554932,-3.7301113605499268
1731409792691053600,10.338053466796875,-4.9133620262146,7.4964141845703125,-3.746861219406128
1731409792700859000,10.34785888671875,-4.939683437347412,7.505985736846924,-3.78753924369812
1731409792710663200,10.3576630859375,-4.937290191650391,7.4724860191345215,-3.835395574569702
1731409792720468500,10.367468505859375,-4.939683437347412,7.434200763702393,-3.8545382022857666
1731409792730274600,10.377274658203126,-4.934897422790527,7.398308277130127,-3.8521454334259033
1731409792740079900,10.387079833984375,-4.942076206207275,7.383951663970947,-3.835395574569702
1731409792749884400,10.396884521484376,-4.96121883392334,7.383951663970947,-3.8234314918518066
1731409792759689700,10.406689697265625,-4.973182678222656,7.400701522827148,-3.842574119567871
1731409792769495800,10.416495849609374,-4.980361461639404,7.410272598266602,-3.849752426147461
1731409792779301000,10.426301025390625,-4.944468975067139,7.443772315979004,-3.866502285003662
1731409792789105700,10.436105712890624,-4.9037909507751465,7.436593532562256,-3.8521454334259033
1731409792798911000,10.445910888671875,-4.867898464202881,7.417450904846191,-3.828217029571533
1731409792808717000,10.455717041015625,-4.853541851043701,7.410272598266602,-3.859323740005493
1731409792818522400,10.4655224609375,-4.930111885070801,7.427022457122803,-3.866502285003662
1731409792828327000,10.475326904296875,-4.956432819366455,7.460521697998047,-3.8306100368499756
1731409792838132200,10.48513232421875,-4.9133620262146,7.4964141845703125,-3.8234314918518066
1731409792847938300,10.494938232421875,-4.767399787902832,7.453343391418457,-3.8449668884277344
1731409792857743600,10.50474365234375,-4.702793598175049,7.391129970550537,-3.8712878227233887
1731409792867548000,10.5145478515625,-4.71954345703125,7.405487060546875,-3.8449668884277344
1731409792877353500,10.524353515625,-4.827220439910889,7.467700481414795,-3.79471755027771
1731409792887159600,10.53415966796875,-4.942076206207275,7.501199722290039,-3.801896095275879
1731409792896964900,10.54396484375,-4.944468975067139,7.489235877990723,-3.801896095275879
1731409792906769200,10.55376904296875,-4.910969257354736,7.465307712554932,-3.811467409133911
1731409792916574500,10.563574462890625,-4.877470016479492,7.419844150543213,-3.8449668884277344
1731409792926380500,10.573380615234376,-4.800899505615234,7.450950622558594,-3.8688950538635254
1731409792936185900,10.583185791015625,-4.78175687789917,7.482057094573975,-3.88803768157959
1731409792945990400,10.592990478515626,-4.779364109039307,7.482057094573975,-3.866502285003662
1731409792955795700,10.602795654296875,-4.784149646759033,7.482057094573975,-3.833002805709839
1731409792965601800,10.612601806640624,-4.8176493644714355,7.494021415710449,-3.7755749225616455
1731409792975407000,10.622406982421875,-4.841577529907227,7.489235877990723,-3.739682674407959
1731409792985211600,10.632211669921874,-4.860720157623291,7.4964141845703125,-3.7444684505462646
1731409792995017000,10.642016845703125,-4.867898464202881,7.491628646850586,-3.76361083984375
1731409793004823000,10.651822998046875,-4.85114860534668,7.494021415710449,-3.801896095275879
1731409793014628400,10.66162841796875,-4.848755836486816,7.489235877990723,-3.8545382022857666
1731409793024433000,10.671432861328125,-4.8798627853393555,7.467700481414795,-3.8712878227233887
1731409793034238200,10.68123828125,-4.891826629638672,7.446165084838867,-3.8545382022857666
1731409793044044300,10.691044189453125,-4.896612644195557,7.429415225982666,-3.8162529468536377
1731409793053849300,10.700849365234374,-4.949254512786865,7.438986301422119,-3.8210387229919434
1731409793063654000,10.71065380859375,-4.956432819366455,7.436593532562256,-3.866502285003662
1731409793073459200,10.720459228515624,-4.922933578491211,7.429415225982666,-3.8712878227233887
1731409793083265300,10.730265380859375,-4.870291233062744,7.441379547119141,-3.849752426147461
1731409793093070600,10.740070556640624,-4.848755836486816,7.436593532562256,-3.840181350708008
1731409793102875100,10.749875244140625,-4.834399223327637,7.443772315979004,-3.8473596572875977
1731409793112680400,10.759680419921875,-4.8176493644714355,7.441379547119141,-3.801896095275879
1731409793122486500,10.769486572265626,-4.796113967895508,7.400701522827148,-3.7827534675598145
1731409793132291800,10.779291748046875,-4.755435943603516,7.417450904846191,-3.801896095275879
1731409793142096400,10.789096435546876,-4.7697930335998535,7.419844150543213,-3.849752426147461
1731409793151901700,10.798901611328125,-4.796113967895508,7.443772315979004,-3.880859136581421
1731409793161707800,10.808707763671874,-4.812863826751709,7.491628646850586,-3.859323740005493
1731409793171513000,10.81851318359375,-4.776971340179443,7.501199722290039,-3.8688950538635254
1731409793181317600,10.828317626953124,-4.748257637023926,7.453343391418457,-3.864109516143799
1731409793191123000,10.838123046875,-4.743471622467041,7.434200763702393,-3.866502285003662
1731409793200929000,10.847928955078125,-4.760221481323242,7.4246296882629395,-3.88803768157959
1731409793210734300,10.857734375,-4.78893518447876,7.4485578536987305,-3.8832521438598633
1731409793220538600,10.86753857421875,-4.800899505615234,7.513164043426514,-3.866502285003662
1731409793230344200,10.87734423828125,-4.765007019042969,7.592426300048828,-3.8473596572875977
1731409793240150300,10.887150390625,-4.776971340179443,7.645068168640137,-3.804288864135742
1731409793249955600,10.89695556640625,-4.767399787902832,7.700103282928467,-3.7731821537017822
1731409793259759900,10.906759765625,-4.779364109039307,7.688138961791992,-3.7971103191375732
1731409793269565200,10.916565185546874,-4.7386860847473145,7.628318786621094,-3.804288864135742
1731409793279371300,10.926371337890625,-4.71954345703125,7.573283672332764,-3.866502285003662
1731409793289176600,10.936176513671874,-4.750650405883789,7.534998416900635,-3.9095730781555176
1731409793298981000,10.945981201171875,-4.824827671051025,7.52512788772583,-3.904787540435791
1731409793308786400,10.955786376953125,-4.860720157623291,7.554141044616699,-3.866502285003662
1731409793318592500,10.965592529296876,-4.78175687789917,7.52512788772583,-3.85693097114563
1731409793328397800,10.975397705078125,-4.633401870727539,7.477271556854248,-3.8066816329956055
1731409793338202400,10.985202392578126,-4.554438591003418,7.4724860191345215,-3.780360698699951
1731409793348007700,10.995007568359375,-4.674079895019531,7.52512788772583,-3.7253258228302
1731409793357813800,11.004813720703124,-4.824827671051025,7.529913902282715,-3.708575963973999
1731409793367619000,11.014619140625,-4.8798627853393555,7.465307712554932,-3.7731821537017822
1731409793377423400,11.02442333984375,-4.841577529907227,7.417450904846191,-3.866502285003662
1731409793387229000,11.03422900390625,-4.808077812194824,7.3863444328308105,-3.9478583335876465
1731409793397035000,11.044034912109375,-4.867898464202881,7.427022457122803,-3.9622151851654053
1731409793406840300,11.05384033203125,-4.827220439910889,7.482057094573975,-3.9263229370117188
1731409793416644600,11.06364453125,-4.721936225891113,7.5326056480407715,-3.842574119567871
1731409793426450000,11.073449951171876,-4.607080936431885,7.534998416900635,-3.801896095275879
1731409793436256000,11.083256103515625,-4.590331077575684,7.52512788772583,-3.7731821537017822
1731409793446061300,11.093061279296874,-4.671687126159668,7.51794958114624,-3.7923247814178467
1731409793455865900,11.102865966796875,-4.745864391326904,7.505985736846924,-3.833002805709839
1731409793465671200,11.112671142578124,-4.8176493644714355,7.4964141845703125,-3.8784663677215576
1731409793475477200,11.122477294921875,-4.9037909507751465,7.494021415710449,-3.8545382022857666
1731409793485282600,11.132282470703124,-4.910969257354736,7.515556812286377,-3.8234314918518066
1731409793495087000,11.142087158203125,-4.934897422790527,7.5203423500061035,-3.835395574569702
1731409793504892400,11.151892333984375,-4.891826629638672,7.544569969177246,-3.8377883434295654
1731409793514698500,11.161698486328126,-4.848755836486816,7.5326056480407715,-3.833002805709839
1731409793524503800,11.17150390625,-4.8367919921875,7.503592491149902,-3.840181350708008
1731409793534308000,11.18130810546875,-4.858327388763428,7.4485578536987305,-3.864109516143799
1731409793544113700,11.19111376953125,-4.884648323059082,7.410272598266602,-3.85693097114563
1731409793553919700,11.200919677734374,-4.889433860778809,7.398308277130127,-3.842574119567871
1731409793563724800,11.210724853515625,-4.863112926483154,7.376772880554199,-3.8138601779937744
1731409793573529300,11.220529296875,-4.872684001922607,7.360023498535156,-3.79471755027771
1731409793583334700,11.230334716796875,-4.863112926483154,7.367201805114746,-3.7731821537017822
1731409793593140700,11.240140625,-4.867898464202881,7.371987342834473,-3.73250412940979
1731409793602946000,11.249946044921876,-4.872684001922607,7.369594573974609,-3.7516467571258545
1731409793612750600,11.25975048828125,-4.875077247619629,7.398308277130127,-3.7683966159820557
1731409793622556000,11.269555908203126,-4.90618371963501,7.388737201690674,-3.78753924369812
1731409793632362000,11.279362060546875,-4.922933578491211,7.360023498535156,-3.7971103191375732
1731409793642167300,11.289167236328124,-4.934897422790527,7.3552374839782715,-3.7923247814178467
1731409793651971800,11.298971923828125,-4.90618371963501,7.350451946258545,-3.7923247814178467
1731409793661777200,11.308777099609374,-4.910969257354736,7.352844715118408,-3.7899320125579834
1731409793671583200,11.318583251953125,-4.882255554199219,7.383951663970947,-3.7899320125579834
1731409793681388500,11.328388427734374,-4.8559346199035645,7.412665367126465,-3.8138601779937744
1731409793691192800,11.33819287109375,-4.846363067626953,7.422236919403076,-3.81864595413208
1731409793700998100,11.347998046875,-4.865505695343018,7.415058135986328,-3.828217029571533
1731409793710804500,11.357804443359376,-4.9037909507751465,7.3863444328308105,-3.842574119567871
1731409793720609800,11.36760986328125,-4.942076206207275,7.345666408538818,-3.833002805709839
1731409793730414000,11.3774140625,-4.970789909362793,7.350451946258545,-3.8234314918518066
1731409793740219400,11.387219482421875,-4.958825588226318,7.371987342834473,-3.82582426071167
1731409793750025500,11.397025390625,-4.970789909362793,7.3935227394104,-3.8306100368499756
1731409793759830800,11.406830810546875,-4.958825588226318,7.4485578536987305,-3.804288864135742
1731409793769635300,11.41663525390625,-4.9516472816467285,7.45573616027832,-3.804288864135742
1731409793779440600,11.426440673828125,-4.937290191650391,7.446165084838867,-3.8138601779937744
1731409793789246700,11.436246826171875,-4.9037909507751465,7.4246296882629395,-3.8473596572875977
1731409793799052000,11.446052001953126,-4.757828712463379,7.3145599365234375,-3.921537160873413
1731409793808856600,11.455856689453125,-4.702793598175049,7.266703128814697,-3.9574296474456787
1731409793818662000,11.465661865234376,-4.860720157623291,7.3313093185424805,-3.8760735988616943
1731409793828468000,11.475468017578125,-5.033003330230713,7.3863444328308105,-3.75643253326416
1731409793838273300,11.485273193359374,-5.078466892242432,7.395915508270264,-3.691826343536377
1731409793848077600,11.49507763671875,-4.989932537078857,7.350451946258545,-3.7181472778320312
1731409793857883000,11.5048828125,-4.922933578491211,7.367201805114746,-3.82582426071167
1731409793867689200,11.514689208984375,-4.934897422790527,7.403094291687012,-3.9406797885894775
1731409793877494300,11.524494384765624,-4.932504653930664,7.436593532562256,-4.014857292175293
1731409793887298800,11.534298828125,-4.832006454467773,7.474878787994385,-3.9957146644592285
1731409793897104100,11.544104248046875,-4.748257637023926,7.51794958114624,-3.928715705871582
1731409793906910200,11.55391015625,-4.760221481323242,7.544569969177246,-3.9000017642974854
1731409793916715500,11.563715576171875,-4.820042133331299,7.513164043426514,-3.8784663677215576
1731409793926520000,11.57352001953125,-4.882255554199219,7.458128929138184,-3.880859136581421
1731409793936325400,11.583325439453125,-4.896612644195557,7.427022457122803,-3.8688950538635254
1731409793946131500,11.59313134765625,-4.882255554199219,7.400701522827148,-3.8760735988616943
1731409793955936800,11.602936767578125,-4.884648323059082,7.388737201690674,-3.8688950538635254
1731409793965741000,11.612740966796874,-4.922933578491211,7.391129970550537,-3.8760735988616943
1731409793975546600,11.622546630859375,-4.934897422790527,7.398308277130127,-3.9071803092956543
1731409793985352700,11.632352783203125,-4.9037909507751465,7.395915508270264,-3.8856449127197266
1731409793995158000,11.642157958984376,-4.894219398498535,7.407879829406738,-3.8545382022857666
1731409794004962300,11.65196240234375,-4.875077247619629,7.398308277130127,-3.8545382022857666
1731409794014767600,11.661767578125,-4.877470016479492,7.357630729675293,-3.864109516143799
1731409794024573700,11.67157373046875,-4.946861743927002,7.340880870819092,-3.8545382022857666
1731409794034379000,11.68137890625,-4.985146999359131,7.326523780822754,-3.811467409133911
1731409794044183600,11.69118359375,-5.009075164794922,7.328916549682617,-3.7971103191375732
1731409794053988900,11.70098876953125,-5.016253471374512,7.3145599365234375,-3.78753924369812
1731409794063795000,11.710794921875,-4.970789909362793,7.328916549682617,-3.7683966159820557
1731409794073600300,11.720600341796874,-4.922933578491211,7.376772880554199,-3.7660038471221924
1731409794083404800,11.73040478515625,-4.882255554199219,7.398308277130127,-3.780360698699951
1731409794093210000,11.740210205078125,-4.867898464202881,7.398308277130127,-3.7827534675598145
1731409794103016200,11.75001611328125,-4.872684001922607,7.4246296882629395,-3.7923247814178467
1731409794112821500,11.759821533203125,-4.891826629638672,7.412665367126465,-3.8138601779937744
1731409794122625800,11.769625732421876,-4.915754795074463,7.383951663970947,-3.835395574569702
1731409794132431000,11.77943115234375,-4.954040050506592,7.376772880554199,-3.8473596572875977
1731409794142237400,11.789237548828124,-4.985146999359131,7.381558895111084,-3.8521454334259033
1731409794152042500,11.79904248046875,-4.977968215942383,7.3863444328308105,-3.8449668884277344
1731409794161847000,11.808846923828124,-4.939683437347412,7.391129970550537,-3.804288864135742
1731409794171652400,11.81865234375,-4.90618371963501,7.412665367126465,-3.770789384841919
1731409794181458400,11.82845849609375,-4.8798627853393555,7.417450904846191,-3.770789384841919
1731409794191263700,11.838263671875,-4.882255554199219,7.4246296882629395,-3.7827534675598145
1731409794201068300,11.848068359375,-4.918148040771484,7.438986301422119,-3.76361083984375
1731409794210873600,11.85787353515625,-4.922933578491211,7.450950622558594,-3.801896095275879
1731409794220679700,11.8676796875,-4.922933578491211,7.415058135986328,-3.833002805709839
1731409794230485000,11.877485107421874,-4.942076206207275,7.376772880554199,-3.82582426071167
1731409794240289300,11.887289306640625,-4.96839714050293,7.379166126251221,-3.7899320125579834
1731409794250094800,11.8970947265625,-5.006682395935059,7.410272598266602,-3.770789384841919
1731409794259901000,11.90690087890625,-4.9277191162109375,7.379166126251221,-3.801896095275879
1731409794269706200,11.916706298828124,-4.745864391326904,7.295417308807373,-3.8521454334259033
1731409794279510500,11.926510498046875,-4.803292274475098,7.340880870819092,-3.8760735988616943
1731409794289315800,11.93631591796875,-5.001896858215332,7.410272598266602,-3.809074640274048
1731409794299122000,11.946121826171876,-5.076074123382568,7.436593532562256,-3.7253258228302
1731409794308927200,11.95592724609375,-5.059324264526367,7.352844715118408,-3.7444684505462646
1731409794318731800,11.965731689453126,-4.985146999359131,7.3145599365234375,-3.7851462364196777
1731409794328537000,11.975537109375,-4.958825588226318,7.333702087402344,-3.8234314918518066
1731409794338343200,11.98534326171875,-4.954040050506592,7.388737201690674,-3.866502285003662
1731409794348148500,11.9951484375,-4.889433860778809,7.474878787994385,-3.842574119567871
1731409794357953000,12.004953125,-4.78175687789917,7.477271556854248,-3.79471755027771
1731409794367758300,12.01475830078125,-4.7626142501831055,7.486843109130859,-3.770789384841919
1731409794377564400,12.024564453125,-4.848755836486816,7.458128929138184,-3.809074640274048
1731409794387369500,12.034369384765625,-4.939683437347412,7.419844150543213,-3.8377883434295654
1731409794397174000,12.044174072265625,-4.982754230499268,7.405487060546875,-3.840181350708008
1731409794406979300,12.053979248046875,-4.9516472816467285,7.400701522827148,-3.8473596572875977
1731409794416785400,12.063785400390625,-4.908576488494873,7.407879829406738,-3.840181350708008
1731409794426590700,12.0735908203125,-4.915754795074463,7.453343391418457,-3.81864595413208
1731409794436395300,12.083395263671875,-4.925326347351074,7.467700481414795,-3.8066816329956055
1731409794446200600,12.09320068359375,-4.932504653930664,7.465307712554932,-3.8066816329956055
1731409794456006700,12.103006591796875,-4.9133620262146,7.436593532562256,-3.76361083984375
1731409794465812000,12.11281201171875,-4.9133620262146,7.398308277130127,-3.7348971366882324
1731409794475616500,12.122616455078125,-4.942076206207275,7.3552374839782715,-3.746861219406128
1731409794485421800,12.132421875,-5.004289627075195,7.3313093185424805,-3.746861219406128
1731409794495228000,12.142227783203126,-5.03061056137085,7.328916549682617,-3.7899320125579834
1731409794505033200,12.152033203125,-5.025825023651123,7.357630729675293,-3.8162529468536377
1731409794514837500,12.16183740234375,-5.001896858215332,7.360023498535156,-3.8473596572875977
1731409794524643000,12.17164306640625,-4.994718074798584,7.398308277130127,-3.8306100368499756
1731409794534449200,12.18144921875,-4.980361461639404,7.427022457122803,-3.7683966159820557
1731409794544254200,12.191254150390625,-4.963611602783203,7.436593532562256,-3.7301113605499268
1731409794554058800,12.201058837890624,-4.930111885070801,7.3935227394104,-3.749253988265991
1731409794563864000,12.210864013671875,-4.937290191650391,7.374380111694336,-3.7540395259857178
1731409794573670100,12.220670166015625,-4.958825588226318,7.3552374839782715,-3.78753924369812
1731409794583475500,12.230475341796875,-4.980361461639404,7.350451946258545,-3.8138601779937744
1731409794593280000,12.240280029296875,-4.96839714050293,7.348059177398682,-3.7995033264160156
1731409794603085300,12.250085205078125,-4.970789909362793,7.371987342834473,-3.7731821537017822
1731409794612891400,12.259891357421875,-4.980361461639404,7.417450904846191,-3.7588253021240234
1731409794622696700,12.26969677734375,-4.958825588226318,7.436593532562256,-3.7755749225616455
1731409794632501200,12.279501220703125,-4.930111885070801,7.429415225982666,-3.7923247814178467
1731409794642306600,12.289306640625,-4.949254512786865,7.415058135986328,-3.8066816329956055
1731409794652112600,12.299112548828125,-4.946861743927002,7.412665367126465,-3.82582426071167
1731409794661918000,12.30891796875,-4.942076206207275,7.412665367126465,-3.8449668884277344
1731409794671722200,12.31872216796875,-4.939683437347412,7.422236919403076,-3.842574119567871
1731409794681527600,12.328527587890624,-4.937290191650391,7.438986301422119,-3.7971103191375732
1731409794691333600,12.338333740234376,-4.937290191650391,7.434200763702393,-3.76361083984375
1731409794701139000,12.348138916015625,-4.954040050506592,7.422236919403076,-3.7205400466918945
1731409794710943500,12.357943603515626,-4.9995036125183105,7.436593532562256,-3.6894333362579346
1731409794720748800,12.367748779296875,-4.9995036125183105,7.458128929138184,-3.715754508972168
1731409794730555000,12.377554931640624,-4.872684001922607,7.388737201690674,-3.8138601779937744
1731409794740360200,12.387360107421875,-4.726722240447998,7.319345474243164,-3.8856449127197266
1731409794750164700,12.397164794921874,-4.805685043334961,7.324131011962891,-3.895216226577759
1731409794759970000,12.406969970703125,-5.011467933654785,7.371987342834473,-3.809074640274048
1731409794769776000,12.416776123046875,-5.095216751098633,7.422236919403076,-3.7253258228302
1731409794779581400,12.42658154296875,-5.073681354522705,7.410272598266602,-3.70139741897583
1731409794789385700,12.4363857421875,-5.021039009094238,7.374380111694336,-3.7037904262542725
1731409794799191000,12.44619091796875,-5.011467933654785,7.3624162673950195,-3.7683966159820557
1731409794808997000,12.4559970703125,-4.987539768218994,7.379166126251221,-3.833002805709839
1731409794818802400,12.465802490234376,-4.9277191162109375,7.410272598266602,-3.85693097114563
1731409794828607000,12.47560693359375,-4.8559346199035645,7.441379547119141,-3.873680830001831
1731409794838412300,12.485412353515626,-4.810471057891846,7.446165084838867,-3.8449668884277344
1731409794848218400,12.49521826171875,-4.865505695343018,7.458128929138184,-3.809074640274048
1731409794858023700,12.505023681640624,-4.920540809631348,7.429415225982666,-3.777967929840088
1731409794867828200,12.514828125,-4.954040050506592,7.429415225982666,-3.749253988265991
1731409794877633500,12.524633544921874,-4.944468975067139,7.438986301422119,-3.7588253021240234
1731409794887439600,12.534439697265626,-4.930111885070801,7.422236919403076,-3.7971103191375732
1731409794897244700,12.54424462890625,-4.934897422790527,7.4246296882629395,-3.828217029571533
1731409794907049200,12.55404931640625,-4.942076206207275,7.438986301422119,-3.8617167472839355
1731409794916854500,12.5638544921875,-4.958825588226318,7.415058135986328,-3.8688950538635254
1731409794926660600,12.57366064453125,-4.946861743927002,7.407879829406738,-3.8473596572875977
1731409794936466000,12.5834658203125,-4.944468975067139,7.403094291687012,-3.801896095275879
1731409794946270500,12.5932705078125,-4.987539768218994,7.3863444328308105,-3.7420754432678223
1731409794956075800,12.60307568359375,-5.016253471374512,7.383951663970947,-3.7133617401123047
1731409794965881900,12.6128818359375,-5.004289627075195,7.388737201690674,-3.7181472778320312
1731409794975687200,12.622687255859375,-4.992325305938721,7.398308277130127,-3.7516467571258545
1731409794985491700,12.63249169921875,-4.9755754470825195,7.369594573974609,-3.7995033264160156
1731409794995297000,12.642297119140625,-4.977968215942383,7.357630729675293,-3.82582426071167
1731409795005103000,12.65210302734375,-4.9995036125183105,7.3552374839782715,-3.8306100368499756
1731409795014908400,12.661908447265626,-4.985146999359131,7.357630729675293,-3.8066816329956055
1731409795024712700,12.671712646484375,-4.96839714050293,7.3624162673950195,-3.7660038471221924
1731409795034518000,12.68151806640625,-4.956432819366455,7.383951663970947,-3.7540395259857178
1731409795044324000,12.691323974609375,-4.9516472816467285,7.391129970550537,-3.746861219406128
1731409795054129400,12.70112939453125,-4.96121883392334,7.405487060546875,-3.75643253326416
