time,seconds_elapsed,z,y,x
1731409782488697300,0.135697265625,0,0,0
1731409782498502700,0.145502685546875,-0.26647019386291504,1.0854315757751465,0.9034720659255981
1731409782508307000,0.155306884765625,-0.2082371711730957,1.9650821685791016,2.6016695499420166
1731409782518112300,0.1651123046875,0.7011208534240723,2.2374353408813477,3.9865012168884277
1731409782527918600,0.174918701171875,1.3778467178344727,1.0931177139282227,3.9488120079040527
1731409782537724000,0.184723876953125,1.0545287132263184,-0.3354043960571289,3.0361804962158203
1731409782547528200,0.194528076171875,-0.031003952026367188,-1.1484794616699219,1.6844587326049805
1731409782557333800,0.204333740234375,-0.03463554382324219,-0.9138240814208984,0.7565145492553711
1731409782567139800,0.214139892578125,0.31153249740600586,-1.0816802978515625,0.09208106994628906
1731409782576945200,0.223945068359375,-0.18697309494018555,-1.5957775115966797,-0.7072944641113281
1731409782586749700,0.233749755859375,0.03359079360961914,-1.3542747497558594,-0.9111406803131104
1731409782596555000,0.243554931640625,0.5035395622253418,-0.6565589904785156,-0.6371686458587646
1731409782606361000,0.253361083984375,0.7970247268676758,0.1874561309814453,-0.5354795455932617
1731409782616166400,0.26316650390625,0.17804956436157227,0.2582883834838867,-0.9401309490203857
1731409782625971000,0.272970947265625,0.16010713577270508,-0.30508899688720703,-1.294419527053833
1731409782635776500,0.282776611328125,-0.7770686149597168,-0.9710330963134766,-1.3871078491210938
1731409782645582600,0.29258251953125,-1.3447613716125488,-1.55149507522583,-1.2283859252929688
1731409782655388000,0.302387939453125,-0.6946573257446289,-1.7264280319213867,-0.7038745880126953
1731409782665192400,0.3121923828125,-0.5442004203796387,-1.6525969505310059,-0.47625160217285156
1731409782674997800,0.321997802734375,-0.7587833404541016,-1.5678086280822754,-0.5570173263549805
1731409782684803800,0.331803955078125,-1.0087318420410156,-0.9496135711669922,-0.27133941650390625
1731409782694609200,0.341609130859375,-0.9701409339904785,0.0810232162475586,-0.0031516551971435547
1731409782704413700,0.35141357421875,-0.9344806671142578,0.24529504776000977,0.2593514919281006
1731409782714219000,0.361218994140625,-0.27455854415893555,-0.16877222061157227,0.490342378616333
1731409782724025000,0.371025146484375,0.4355654716491699,-0.32102441787719727,0.6066849231719971
1731409782733830400,0.380830322265625,1.4310269355773926,-0.6373610496520996,0.6660900115966797
1731409782743635000,0.390635009765625,2.0417943000793457,-1.206540584564209,0.5300562381744385
1731409782753440300,0.400440185546875,2.248668670654297,-1.244171142578125,0.03159928321838379
1731409782763246600,0.41024658203125,2.541156768798828,-1.3702540397644043,-0.21077752113342285
1731409782773052000,0.420052001953125,2.9229326248168945,-1.7014636993408203,-0.48735499382019043
1731409782782856200,0.429856201171875,2.9552741050720215,-1.9898576736450195,-0.5852711200714111
1731409782792661800,0.439661865234375,2.8653998374938965,-1.6462135314941406,-0.2539253234863281
1731409782802467800,0.4494677734375,2.4902896881103516,-1.3193893432617188,-0.2878074645996094
1731409782812273200,0.459273193359375,1.8538098335266113,-1.570927619934082,-0.057997941970825195
1731409782822077700,0.46907763671875,1.012345790863037,-1.676152229309082,0.10445523262023926
1731409782831883000,0.478883056640625,0.44580650329589844,-1.9198508262634277,0.2128305435180664
1731409782841689000,0.488689208984375,0.14242172241210938,-1.921769618988037,0.29953956604003906
1731409782851494400,0.498494384765625,-0.06181955337524414,-1.6337924003601074,0.4474163055419922
1731409782861299000,0.508298828125,0.09884929656982422,-1.1952977180480957,0.7488760948181152
1731409782871104300,0.518104248046875,0.3071737289428711,-1.2906179428100586,0.9669628143310547
1731409782880910300,0.527910400390625,0.1394820213317871,-1.094212532043457,0.5261573791503906
1731409782890716000,0.5377158203125,0.5946187973022461,-0.4776129722595215,0.6516838073730469
1731409782900520200,0.547520263671875,-0.04192209243774414,-0.29575109481811523,1.4437391757965088
1731409782910325800,0.55732568359375,-4.0040740966796875,-1.0507025718688965,1.2205396890640259
1731409782920131800,0.5671318359375,-3.010512351989746,-0.28256893157958984,0.49076008796691895
1731409782929937200,0.576937255859375,-1.6422905921936035,0.026674270629882812,0.49934375286102295
1731409782939741700,0.58674169921875,-0.08567142486572266,-0.3899683952331543,0.5797169208526611
1731409782949547000,0.596547119140625,0.9770650863647461,-1.201502799987793,0.39732933044433594
1731409782959353000,0.60635302734375,2.2455811500549316,-1.8068065643310547,0.6424834728240967
1731409782969158400,0.616158447265625,3.1505165100097656,-2.101128101348877,1.2146620750427246
1731409782978963000,0.625962890625,3.567862033843994,-1.986833095550537,1.3837279081344604
1731409782988768300,0.635768310546875,3.894904613494873,-2.016782283782959,1.4626667499542236
1731409782998574300,0.64557421875,4.13501501083374,-2.0246286392211914,1.5997577905654907
1731409783008379600,0.655379638671875,3.639467716217041,-1.5458760261535645,1.480591058731079
1731409783018184200,0.66518408203125,3.0067577362060547,-1.7196969985961914,1.604806900024414
1731409783027989800,0.67498974609375,2.5215940475463867,-2.2343015670776367,1.5571002960205078
1731409783037795800,0.6847958984375,2.019162654876709,-2.6488447189331055,1.745537519454956
1731409783047601200,0.69460107421875,1.5402274131774902,-3.0094141960144043,2.549586296081543
1731409783057405700,0.70440576171875,1.8004450798034668,-1.4795231819152832,2.3570010662078857
1731409783067211000,0.7142109375,2.3090500831604004,-0.5020866394042969,1.6936219930648804
1731409783077017000,0.72401708984375,3.198474884033203,-0.7326397895812988,0.5103998184204102
1731409783086822400,0.733822509765625,3.661130428314209,-1.2263612747192383,0.045864760875701904
1731409783096627000,0.743626953125,4.124483108520508,-1.0778923034667969,0.2959432899951935
1731409783106432300,0.753432373046875,4.142267227172852,-1.1035346984863281,0.6355471611022949
1731409783116238300,0.76323828125,3.904623508453369,-1.6022906303405762,0.7058044672012329
1731409783126043600,0.773043701171875,3.581058979034424,-1.9049067497253418,0.2458493709564209
1731409783135848200,0.78284814453125,4.054154872894287,-2.4754281044006348,0.612960696220398
1731409783145653500,0.792653564453125,3.3478498458862305,-2.535717010498047,-0.06224656105041504
1731409783155459800,0.8024599609375,3.39998197555542,-2.5477123260498047,-0.5683410167694092
1731409783165265200,0.81226513671875,3.0455102920532227,-2.528324604034424,-1.6357624530792236
1731409783175069400,0.8220693359375,2.554778814315796,-2.596832275390625,-2.6206376552581787
1731409783184875000,0.831875,2.2758584022521973,-2.755828380584717,-3.302426815032959
1731409783194681000,0.84168115234375,1.7312281131744385,-2.9000635147094727,-3.7314608097076416
1731409783204486400,0.851486328125,0.6579184532165527,-3.1274499893188477,-3.97041392326355
1731409783214291000,0.861291015625,-0.6423485279083252,-3.3365068435668945,-3.8040354251861572
1731409783224096300,0.87109619140625,-2.026500701904297,-3.382843494415283,-3.746774673461914
1731409783233902300,0.88090234375,-2.6686275005340576,-3.291292667388916,-3.707777738571167
1731409783243707600,0.890707763671875,-2.2329158782958984,-3.350111961364746,-4.881146430969238
1731409783253512200,0.90051220703125,-2.4278392791748047,-3.787231922149658,-4.269110679626465
1731409783263317800,0.91031787109375,-2.755857467651367,-3.5300259590148926,-4.456157684326172
1731409783273123800,0.920123779296875,-2.8458049297332764,-3.0352420806884766,-4.837841033935547
1731409783282929200,0.92992919921875,-5.493269443511963,-3.1373419761657715,-4.671392440795898
1731409783292733700,0.939733642578125,-6.974494457244873,-3.59299898147583,-4.2602081298828125
1731409783302539000,0.9495390625,-7.586233615875244,-3.6111035346984863,-3.5583696365356445
1731409783312345000,0.959344970703125,-7.587357521057129,-3.213292121887207,-2.890775203704834
1731409783322150400,0.969150390625,-6.696351051330566,-2.768627643585205,-2.5465028285980225
1731409783331955000,0.978954833984375,-5.818499565124512,-2.4171204566955566,-2.2866570949554443
1731409783341760300,0.98876025390625,-5.05685567855835,-2.198187828063965,-1.6840150356292725
1731409783351566300,0.99856640625,-4.340395927429199,-2.1020779609680176,-0.9464974403381348
1731409783361371600,1.00837158203125,-3.608506917953491,-2.097978115081787,-0.5214529037475586
1731409783371176200,1.01817626953125,-3.1150548458099365,-2.0310096740722656,-0.5170755386352539
1731409783380981500,1.0279814453125,-1.9782466888427734,-1.8652215003967285,-0.49671292304992676
1731409783390787800,1.037787841796875,-1.9351423978805542,-2.0145249366760254,-1.3102469444274902
1731409783400593200,1.04759326171875,-1.8817445039749146,-2.214768409729004,-2.103571891784668
1731409783410397400,1.0573974609375,-1.9332122802734375,-2.325416088104248,-2.414426326751709
1731409783420203000,1.067203125,-2.3569064140319824,-1.8483061790466309,-1.7902512550354004
1731409783430009000,1.077009033203125,-2.506807327270508,-1.1772375106811523,-0.5315713882446289
1731409783439814400,1.086814453125,-2.484731435775757,-0.5941076278686523,0.8525481224060059
1731409783449619000,1.096618896484375,-2.3883447647094727,-0.040434837341308594,2.154952049255371
1731409783459424300,1.10642431640625,-2.0179901123046875,0.33438873291015625,3.151015520095825
1731409783469230300,1.116230224609375,-1.1952731609344482,0.5168628692626953,3.6215295791625977
1731409783479035600,1.12603564453125,-0.5433133840560913,0.6021852493286133,3.5179476737976074
1731409783488840200,1.135840087890625,-0.04741072654724121,0.4493379592895508,2.7888827323913574
1731409783498645500,1.1456455078125,0.0789254903793335,0.28238868713378906,1.7193634510040283
1731409783508451800,1.155451904296875,-0.2808558940887451,0.11002349853515625,0.7785019874572754
1731409783518257200,1.165257080078125,-0.4667840003967285,-0.17569541931152344,0.40242528915405273
1731409783528061400,1.1750615234375,-0.5078010559082031,-0.31774330139160156,0.4860541820526123
1731409783537867000,1.184866943359375,-0.27930474281311035,-0.33987998962402344,0.9504978656768799
1731409783547673000,1.194673095703125,0.11136078834533691,-0.22970104217529297,1.6881210803985596
1731409783557478400,1.204478515625,0.6140986680984497,-0.1808300018310547,1.963765025138855
1731409783567283000,1.214282958984375,1.0016881227493286,-0.28251171112060547,1.6896824836730957
1731409783577088300,1.224088134765625,1.163859486579895,-0.3954896926879883,0.983985424041748
1731409783586894300,1.233894287109375,0.999133825302124,-0.5475878715515137,0.22864627838134766
1731409783596699600,1.24369970703125,0.31680965423583984,-0.5020837783813477,-0.5494186878204346
1731409783606504200,1.253504150390625,-0.6176338195800781,-0.28749608993530273,-0.894171953201294
1731409783616309500,1.2633095703125,-1.286911964416504,-0.10098028182983398,-0.9650218486785889
1731409783626115800,1.27311572265625,-1.7274489402770996,0.08479595184326172,-0.9234404563903809
1731409783635921200,1.282921142578125,-1.6976633071899414,0.2219386100769043,-0.8496766090393066
1731409783645725400,1.292725341796875,-1.3152446746826172,0.1372685432434082,-0.8917152881622314
1731409783655531000,1.302531005859375,-0.7046961784362793,0.0038919448852539062,-0.9405755996704102
1731409783665337000,1.312337158203125,-0.1052541732788086,-0.011795520782470703,-1.069856882095337
1731409783675142400,1.322142333984375,0.2545509338378906,-0.11529254913330078,-1.1507477760314941
1731409783684947000,1.331947021484375,0.20700931549072266,-0.2255411148071289,-1.0007777214050293
1731409783694752300,1.341752197265625,-0.36335229873657227,-0.19698810577392578,-0.7911291122436523
1731409783704558300,1.351558349609375,-1.7265357971191406,0.088165283203125,-0.8582358360290527
1731409783714364000,1.361364013671875,-4.857771396636963,0.6622400283813477,-0.8900465965270996
1731409783724168200,1.371168212890625,-8.256723403930664,1.2879180908203125,-0.6770105361938477
1731409783733973500,1.380973388671875,-6.917959690093994,0.8765945434570312,-0.28028440475463867
1731409783743779800,1.39077978515625,-3.1413278579711914,-0.34394264221191406,-0.41714048385620117
1731409783753585200,1.400585205078125,-0.8801445960998535,-0.8941731452941895,-0.793543815612793
1731409783763389700,1.4103896484375,-0.4164552688598633,-0.8962254524230957,-1.0840239524841309
1731409783773195000,1.420195068359375,-1.1878371238708496,-0.6882567405700684,-1.4916443824768066
1731409783783001000,1.4300009765625,-2.58535099029541,-0.34173107147216797,-1.897942066192627
1731409783792806400,1.439806396484375,-3.70361328125,0.17411470413208008,-1.8962554931640625
1731409783802611000,1.44961083984375,-4.721048831939697,0.8130297660827637,-1.4362831115722656
1731409783812416300,1.459416259765625,-5.65623664855957,1.437349796295166,-0.7734146118164062
1731409783822222600,1.46922265625,-6.352096080780029,1.0336074829101562,-0.4977283477783203
1731409783832028000,1.47902783203125,-6.66094446182251,0.569648265838623,-0.21320390701293945
1731409783841832200,1.488832275390625,-6.93356990814209,0.3941802978515625,-0.289379358291626
1731409783851637800,1.4986376953125,-6.804869174957275,-0.015114784240722656,-0.6831021308898926
1731409783861443800,1.50844384765625,-6.461717128753662,-0.8372683525085449,-1.1059908866882324
1731409783871249200,1.518249267578125,-5.797940254211426,-1.8900890350341797,-1.4944219589233398
1731409783881053700,1.5280537109375,-4.415866851806641,-2.2605905532836914,-1.6025314331054688
1731409783890859000,1.53785888671875,-2.5328001976013184,-2.5339832305908203,-1.521000623703003
1731409783900665000,1.5476650390625,-0.05336642265319824,-2.862851619720459,-1.442253589630127
1731409783910470400,1.557470458984375,2.2781920433044434,-3.1922035217285156,-1.364262342453003
1731409783920275000,1.56727490234375,4.299314975738525,-3.3185677528381348,-1.104015588760376
1731409783930080300,1.577080322265625,5.969212532043457,-3.3741750717163086,-0.7268245220184326
1731409783939886600,1.586886474609375,7.543228626251221,-3.490326404571533,-0.2253274917602539
1731409783949692000,1.59669189453125,9.073524475097656,-3.588188648223877,0.40650463104248047
1731409783959496400,1.606496337890625,10.232229232788086,-3.7109789848327637,1.018293857574463
1731409783969301800,1.6163017578125,11.23021411895752,-3.8261971473693848,1.5028592348098755
1731409783979107800,1.62610791015625,12.063273429870605,-3.9426627159118652,1.9284125566482544
1731409783988913200,1.6359130859375,12.369894027709961,-3.995152473449707,2.3565540313720703
1731409783998717700,1.6457177734375,11.91051197052002,-3.950577735900879,2.8298487663269043
1731409784008523000,1.65552294921875,10.931402206420898,-4.104694843292236,2.9259555339813232
1731409784018329000,1.6653291015625,9.953893661499023,-4.3696112632751465,2.6250481605529785
1731409784028134700,1.675134765625,8.905938148498535,-4.47126579284668,2.2266993522644043
1731409784037939000,1.68493896484375,7.821191787719727,-4.675324440002441,1.7239744663238525
1731409784047744500,1.69474462890625,6.939762592315674,-4.819798946380615,1.0923506021499634
1731409784057550600,1.704550537109375,6.152860164642334,-4.814671039581299,0.4041292667388916
1731409784067356000,1.71435595703125,5.474017143249512,-4.817392349243164,-0.052815914154052734
1731409784077160400,1.724160400390625,4.905858993530273,-4.718343257904053,-0.11460566520690918
1731409784086965800,1.7339658203125,4.112885475158691,-4.727435111999512,0.2921426296234131
1731409784096771800,1.743771728515625,3.1204023361206055,-4.848187446594238,0.6088221073150635
1731409784106577200,1.7535771484375,2.109539270401001,-4.906103134155273,0.6360058784484863
1731409784116381700,1.763381591796875,0.8368852138519287,-4.866726875305176,-0.1342179775238037
1731409784126187000,1.77318701171875,-0.8699202537536621,-4.582643508911133,-1.1296961307525635
1731409784135993300,1.782993408203125,-2.6235861778259277,-4.162360191345215,-1.704676866531372
1731409784145798700,1.792798583984375,-4.5105719566345215,-3.172417402267456,-1.4488444328308105
1731409784155603200,1.802603271484375,-13.120927810668945,-2.920422077178955,-2.1555838584899902
1731409784165408500,1.812408447265625,-49.80746841430664,1.6885604858398438,-2.5568649768829346
1731409784175214600,1.822214599609375,-35.56816864013672,6.1992058753967285,-0.796790599822998
1731409784185020000,1.83202001953125,-16.48098373413086,0.7954287528991699,-2.1757798194885254
1731409784194824400,1.841824462890625,-3.6835741996765137,-3.3223865032196045,-2.0515923500061035
1731409784204629800,1.851629638671875,2.1737186908721924,-3.126433849334717,-1.1102123260498047
1731409784214436000,1.86143603515625,1.2937407493591309,-0.6960678100585938,0.2290198802947998
1731409784224241400,1.871241455078125,-0.8924784660339355,0.49849700927734375,0.6395165920257568
1731409784234045700,1.881045654296875,-2.313508987426758,0.4787864685058594,0.08999371528625488
1731409784243851300,1.890851318359375,-3.5775089263916016,0.5322365760803223,-0.6278882026672363
1731409784253657300,1.9006572265625,-4.367815971374512,0.518376350402832,-1.306020736694336
1731409784263462700,1.910462646484375,-4.7292304039001465,0.24898719787597656,-1.8584961891174316
1731409784273267200,1.92026708984375,-4.911149024963379,-0.20815515518188477,-2.019803285598755
1731409784283072500,1.930072509765625,-4.7741522789001465,-0.8863515853881836,-1.9370505809783936
1731409784292878800,1.93987890625,-4.231985092163086,-1.634068489074707,-1.6882944107055664
1731409784302684200,1.94968408203125,-3.375818967819214,-2.2238874435424805,-1.2753181457519531
1731409784312488400,1.959488525390625,-2.3078696727752686,-2.524447441101074,-0.8535070419311523
1731409784322294000,1.9692939453125,-1.2364270687103271,-2.560269832611084,-0.411029577255249
1731409784332100000,1.97910009765625,-0.2765312194824219,-2.563699245452881,-0.1090097427368164
1731409784341905400,1.988905517578125,0.49869728088378906,-2.5873918533325195,-0.04504537582397461
1731409784351710000,1.9987099609375,1.0184412002563477,-2.436735153198242,-0.01151895523071289
1731409784361515300,2.008515380859375,1.3420051336288452,-2.227505683898926,0.08703947067260742
1731409784371321600,2.018321533203125,1.5261656045913696,-2.167435646057129,0.17088007926940918
1731409784381127000,2.028126953125,1.7076008319854736,-2.1976099014282227,0.2832648754119873
1731409784390931500,2.037931396484375,1.9554804563522339,-2.1886959075927734,0.44495677947998047
1731409784400736800,2.04773681640625,2.4803431034088135,-2.159536838531494,0.6186294555664062
1731409784410542800,2.05754296875,3.2680747509002686,-2.160142421722412,0.8383631706237793
1731409784420348200,2.06734814453125,4.2743024826049805,-1.980987548828125,1.0250568389892578
1731409784430152700,2.077152587890625,4.9655938148498535,-1.7918119430541992,1.1821255683898926
1731409784439958000,2.0869580078125,5.367896556854248,-1.8431744575500488,1.383031964302063
1731409784449764400,2.096764404296875,5.907089710235596,-1.8960065841674805,1.592708945274353
1731409784459569700,2.106569580078125,6.467486381530762,-1.7903714179992676,1.5929309129714966
1731409784469374000,2.1163740234375,6.5517258644104,-1.7747325897216797,1.4804753065109253
1731409784479179500,2.126179443359375,6.537260055541992,-1.8789887428283691,1.3013734817504883
1731409784488985600,2.135985595703125,6.573791980743408,-1.9600706100463867,0.9780821800231934
1731409784498791000,2.145791015625,6.2838640213012695,-1.960629940032959,0.4662330150604248
1731409784508595500,2.155595458984375,5.137951374053955,-2.1684679985046387,-0.0043337345123291016
1731409784518400800,2.16540087890625,3.1860742568969727,-2.6809959411621094,-0.6055846214294434
1731409784528206800,2.175206787109375,3.2387237548828125,-2.331498146057129,-0.5180184841156006
1731409784538012400,2.185012451171875,4.179405212402344,-1.6638121604919434,-0.31290388107299805
1731409784547817000,2.19481689453125,4.011473655700684,-0.8345193862915039,0.41460466384887695
1731409784557622300,2.204622314453125,4.128173828125,-0.6237640380859375,0.5519969463348389
1731409784567428400,2.214428466796875,4.112603664398193,-1.0626249313354492,0.7424921989440918
1731409784577233700,2.224233642578125,3.811699628829956,-1.37040376663208,0.7205309867858887
1731409784587038200,2.2340380859375,3.5741658210754395,-1.5002098083496094,0.6441042423248291
1731409784596843500,2.243843505859375,3.453817367553711,-1.7264232635498047,0.541454553604126
1731409784606649900,2.25364990234375,3.486253023147583,-1.9216980934143066,0.09973812103271484
1731409784616455200,2.263455078125,3.3913867473602295,-2.3950934410095215,-0.37964963912963867
1731409784626259700,2.273259765625,3.382251262664795,-3.0769262313842773,-0.5541815757751465
1731409784636065000,2.28306494140625,3.388864040374756,-3.4159703254699707,-0.44283556938171387
1731409784645871000,2.29287109375,3.2263240814208984,-3.5199837684631348,-0.057530879974365234
1731409784655676400,2.302676513671875,3.059635639190674,-3.6146388053894043,0.011153459548950195
1731409784665481000,2.31248095703125,3.0620644092559814,-3.6750755310058594,-0.377852201461792
1731409784675286300,2.322286376953125,2.9922678470611572,-3.816573143005371,-0.7869448661804199
1731409784685092600,2.332092529296875,2.8522346019744873,-3.9461307525634766,-1.0411148071289062
1731409784694898000,2.34189794921875,2.4360268115997314,-4.0348100662231445,-0.8930702209472656
1731409784704702500,2.351702392578125,1.8601000308990479,-3.957705497741699,-0.7237520217895508
1731409784714507800,2.3615078125,0.44797420501708984,-3.9028522968292236,-0.5339269638061523
1731409784724313900,2.37131396484375,-11.739248275756836,-2.5167593955993652,-0.17626237869262695
1731409784734119400,2.381119384765625,-47.308013916015625,3.103884220123291,1.7766953706741333
1731409784743923700,2.390923828125,-36.004241943359375,4.401851654052734,2.072293281555176
1731409784753729300,2.400729248046875,-16.77320098876953,0.9643378257751465,-0.49399542808532715
1731409784763535400,2.410535400390625,-5.203312397003174,-2.159329414367676,-1.0149917602539062
1731409784773340700,2.420340576171875,1.3404426574707031,-3.0224571228027344,-1.114072322845459
1731409784783145200,2.430145263671875,2.805708408355713,-1.9038395881652832,-0.5088291168212891
1731409784792950500,2.439950439453125,1.3257904052734375,-0.13408946990966797,0.3815500736236572
1731409784802756900,2.4497568359375,-0.8361873626708984,0.9696879386901855,1.0108988285064697
1731409784812562200,2.459562255859375,-2.131378173828125,1.2534842491149902,1.0570898056030273
1731409784822366700,2.46936669921875,-2.9540371894836426,1.133960247039795,0.6727674007415771
1731409784832172000,2.479172119140625,-3.5548181533813477,0.8680882453918457,0.08155417442321777
1731409784841978000,2.48897802734375,-3.9926018714904785,0.5815315246582031,-0.3191335201263428
1731409784851783400,2.498783447265625,-4.349154949188232,0.0905003547668457,-0.47855353355407715
1731409784861588000,2.508587890625,-4.250751495361328,-0.655583381652832,-0.6166961193084717
1731409784871393500,2.5183935546875,-3.7403879165649414,-1.171445369720459,-0.653616189956665
1731409784881199600,2.52819970703125,-3.10186767578125,-1.531857967376709,-0.6657233238220215
1731409784891005000,2.5380048828125,-2.3578004837036133,-1.7840394973754883,-0.6660737991333008
1731409784900809500,2.5478095703125,-1.632873296737671,-1.9850778579711914,-0.6414163112640381
1731409784910614800,2.55761474609375,-0.9652001857757568,-2.0876851081848145,-0.6253576278686523
1731409784920420900,2.5674208984375,-0.45243167877197266,-1.9729862213134766,-0.585033655166626
1731409784930226200,2.57722607421875,-0.03646111488342285,-1.8812494277954102,-0.5993213653564453
1731409784940030700,2.58703076171875,0.2931830883026123,-1.8990421295166016,-0.6040935516357422
1731409784949836300,2.596836181640625,0.45333683490753174,-1.956827163696289,-0.6098260879516602
1731409784959642400,2.606642333984375,0.6493417024612427,-2.103856086730957,-0.5012924671173096
1731409784969447700,2.61644775390625,0.9058520793914795,-2.140408992767334,-0.25057435035705566
1731409784979252200,2.626252197265625,1.3255327939987183,-2.144742012023926,0.05684351921081543
1731409784989057500,2.6360576171875,1.7807642221450806,-2.1620893478393555,0.28017354011535645
1731409784998864000,2.64586376953125,2.186811685562134,-2.135941505432129,0.38776564598083496
1731409785008669200,2.655669189453125,2.5775980949401855,-2.1187996864318848,0.2976498603820801
1731409785018473700,2.6654736328125,3.0053958892822266,-2.187788486480713,0.0764920711517334
1731409785028279000,2.675279052734375,3.282712459564209,-2.243183135986328,-0.10893774032592773
1731409785038085000,2.685085205078125,3.3669896125793457,-2.189652442932129,-0.16979026794433594
1731409785047890400,2.694890380859375,3.367216110229492,-2.0413060188293457,-0.13610601425170898
1731409785057695000,2.704695068359375,3.387657642364502,-1.99540376663208,-0.010898590087890625
1731409785067500500,2.71450048828125,3.567931652069092,-1.9596009254455566,0.1494753360748291
1731409785077306600,2.724306640625,3.641089916229248,-1.877622127532959,0.2648310661315918
1731409785087112000,2.73411181640625,3.852141857147217,-1.698047161102295,0.3655726909637451
1731409785096916500,2.74391650390625,4.201488494873047,-1.4338364601135254,0.46469831466674805
1731409785106721800,2.7537216796875,4.439753532409668,-1.2898178100585938,0.5134439468383789
1731409785116528000,2.763528076171875,4.664287090301514,-1.2819490432739258,0.512415885925293
1731409785126333400,2.77333349609375,4.651395797729492,-1.27459716796875,0.5026905536651611
1731409785136138000,2.783137939453125,4.65355920791626,-1.194148063659668,0.45261693000793457
1731409785145943300,2.792943359375,4.811352729797363,-1.2656846046447754,0.2536122798919678
1731409785155749400,2.802749267578125,4.7931671142578125,-1.4223098754882812,0.08603310585021973
1731409785165555000,2.812554931640625,4.798525333404541,-1.5638532638549805,-0.0711517333984375
1731409785175359200,2.822359130859375,4.778688430786133,-1.751936912536621,-0.2758641242980957
1731409785185164800,2.832164794921875,4.722947120666504,-1.8760385513305664,-0.4245927333831787
1731409785194971000,2.841970947265625,4.721454620361328,-1.9187240600585938,-0.53590989112854
1731409785204776200,2.851776123046875,4.713467597961426,-1.9381470680236816,-0.5731406211853027
1731409785214580700,2.861580810546875,4.6536335945129395,-1.905296802520752,-0.6042928695678711
1731409785224386000,2.871385986328125,4.394278526306152,-1.9901113510131836,-0.5521600246429443
1731409785234192400,2.8811923828125,4.063900470733643,-2.189847946166992,-0.4014890193939209
1731409785243997700,2.890997802734375,3.838298797607422,-2.3993124961853027,-0.2680521011352539
1731409785253802200,2.90080224609375,3.663947820663452,-2.580843925476074,-0.17910361289978027
1731409785263607600,2.910607666015625,3.5864481925964355,-2.78133487701416,-0.12297177314758301
1731409785273413600,2.92041357421875,3.5173325538635254,-3.0425047874450684,-0.010865449905395508
1731409785283219200,2.93021923828125,3.4440300464630127,-3.283731460571289,0.10672926902770996
1731409785293023500,2.9400234375,3.3412516117095947,-3.451272487640381,0.1341855525970459
1731409785302829000,2.9498291015625,3.1082944869995117,-3.5330748558044434,0.01620340347290039
1731409785312635100,2.95963525390625,2.8101871013641357,-3.724085807800293,0.020619630813598633
1731409785322440400,2.9694404296875,2.46722149848938,-3.985949993133545,-0.07338595390319824
1731409785332245000,2.979244873046875,2.1937460899353027,-4.215521812438965,-0.2203383445739746
1731409785342050300,2.98905029296875,2.0857675075531006,-4.274901390075684,-0.4536747932434082
1731409785351856600,2.998856689453125,1.9497814178466797,-4.207756042480469,-0.9326472282409668
1731409785361662000,3.008661865234375,1.4470219612121582,-3.9841535091400146,-1.2273132801055908
1731409785371466500,3.018466552734375,-0.09187746047973633,-3.8386380672454834,-1.2180778980255127
1731409785381271800,3.028271728515625,-13.178506851196289,-2.3864712715148926,-0.026202917098999023
1731409785391078000,3.038077880859375,-52.16958999633789,1.4660906791687012,3.825984239578247
1731409785400883500,3.047883544921875,-35.278621673583984,2.906525135040283,4.114428997039795
1731409785410687700,3.057687744140625,-15.195362091064453,0.655848503112793,1.6433521509170532
1731409785420493300,3.067493408203125,-2.040775775909424,-2.046621322631836,1.0868775844573975
1731409785430299400,3.07729931640625,3.6546318531036377,-3.3323793411254883,0.35198068618774414
1731409785440104700,3.087104736328125,6.245274543762207,-2.7369275093078613,0.13853812217712402
1731409785449909200,3.0969091796875,6.4706950187683105,-0.8223686218261719,0.3530919551849365
1731409785459714800,3.10671484375,5.796716690063477,0.8772082328796387,0.5755071640014648
1731409785469521000,3.11652099609375,5.507804870605469,1.3496479988098145,0.2732110023498535
1731409785479326200,3.126326171875,5.5196146965026855,1.1636247634887695,-0.46538424491882324
1731409785489130800,3.136130859375,5.035846710205078,0.9217400550842285,-1.3143882751464844
1731409785498936000,3.14593603515625,3.864401340484619,0.6604976654052734,-2.006950616836548
1731409785508742400,3.155742431640625,1.8872740268707275,0.4170060157775879,-2.402343273162842
1731409785518547700,3.165547607421875,-2.216320514678955,0.40041494369506836,-2.039685010910034
1731409785528352300,3.175352294921875,-8.159584045410156,0.47739505767822266,-0.8062436580657959
1731409785538157600,3.185157470703125,-8.015396118164062,0.3153553009033203,0.06066012382507324
1731409785547963600,3.194963623046875,-4.5891947746276855,-0.2881603240966797,0.10456085205078125
1731409785557769000,3.20476904296875,-0.8331761360168457,-0.8082766532897949,-0.08004283905029297
1731409785567573500,3.214573486328125,1.5007853507995605,-0.8485679626464844,-0.0465092658996582
1731409785577379000,3.224379150390625,2.4792943000793457,-0.4588336944580078,0.1975994110107422
1731409785587185200,3.23418505859375,2.3819403648376465,0.05265045166015625,0.3990333080291748
1731409785596990500,3.243990478515625,1.6663212776184082,0.35297727584838867,0.4361612796783447
1731409785606795000,3.253794921875,0.8467974662780762,0.3793802261352539,0.2441704273223877
1731409785616600300,3.263600341796875,0.18043088912963867,0.23720884323120117,-0.045057058334350586
1731409785626406700,3.27340673828125,-0.1616072654724121,0.08042526245117188,-0.23502779006958008
1731409785636212000,3.2832119140625,-0.24751806259155273,-0.07142353057861328,-0.15081048011779785
1731409785646016500,3.2930166015625,-0.08216619491577148,-0.1847400665283203,0.019480228424072266
1731409785655821800,3.30282177734375,0.17680692672729492,-0.25358009338378906,-0.0023903846740722656
1731409785665628000,3.3126279296875,0.2630958557128906,-0.26334476470947266,0.03125500679016113
1731409785675433500,3.32243359375,0.09813165664672852,-0.15543317794799805,0.12751126289367676
1731409785685237800,3.33223779296875,-0.02472400665283203,-0.06805849075317383,0.11837077140808105
1731409785695043300,3.342043212890625,-0.054454803466796875,-0.011522769927978516,-0.04308366775512695
1731409785704849400,3.351849365234375,-0.01939868927001953,-0.006983757019042969,-0.1611347198486328
1731409785714654700,3.36165478515625,0.035826683044433594,-0.008260250091552734,-0.23365521430969238
1731409785724459300,3.371459228515625,0.049569129943847656,-0.04607582092285156,-0.20126748085021973
1731409785734264800,3.381264892578125,0.05324125289916992,-0.08898782730102539,-0.11899471282958984
1731409785744071000,3.39107080078125,0.020747661590576172,-0.10095882415771484,-0.039273977279663086
1731409785753876200,3.400876220703125,0.012472152709960938,-0.08893442153930664,-0.05072617530822754
1731409785763680800,3.4106806640625,-0.007419586181640625,-0.05018329620361328,0.0028188228607177734
1731409785773486000,3.420486083984375,-0.031909942626953125,-0.032086849212646484,0.11989927291870117
1731409785783292400,3.43029248046875,0.02338886260986328,-0.02978801727294922,0.13442111015319824
1731409785793097700,3.44009765625,0.14518070220947266,-0.06218099594116211,0.049875497817993164
1731409785802902300,3.44990234375,0.24147558212280273,-0.10257768630981445,-0.01061701774597168
1731409785812707600,3.45970751953125,0.20969676971435547,-0.0789942741394043,-0.07745957374572754
1731409785822513700,3.469513671875,0.1425776481628418,-0.025538921356201172,-0.09560680389404297
1731409785832319000,3.479319091796875,0.07226085662841797,0.009191036224365234,-0.04314780235290527
1731409785842123500,3.48912353515625,0.06153726577758789,0.01946735382080078,0.03728938102722168
1731409785851929000,3.49892919921875,0.10708141326904297,0.011706829071044922,0.023453712463378906
1731409785861735200,3.508735107421875,0.08897733688354492,-0.006855964660644531,0.011748313903808594
1731409785871540500,3.51854052734375,0.04768705368041992,-0.005397796630859375,-0.04319643974304199
1731409785881345000,3.528344970703125,-0.021759986877441406,0.01602315902709961,-0.06924152374267578
1731409785891150300,3.538150390625,-0.07401704788208008,0.005052089691162109,-0.06351709365844727
1731409785900956700,3.547956787109375,-0.041779518127441406,0.012377262115478516,-0.03076648712158203
1731409785910762000,3.557761962890625,0.041933536529541016,0.012323379516601562,-0.025707483291625977
1731409785920566500,3.56756640625,0.11823892593383789,0.017507553100585938,-0.017368793487548828
1731409785930371800,3.577371826171875,0.1496901512145996,0.030654430389404297,-0.0013995170593261719
1731409785940178200,3.58717822265625,0.17018413543701172,0.056708335876464844,0.05784893035888672
1731409785949983500,3.5969833984375,0.15822601318359375,0.06917667388916016,0.1050257682800293
1731409785959787800,3.606787841796875,0.18331670761108398,0.1134343147277832,0.08733415603637695
1731409785969593300,3.61659326171875,0.20281076431274414,0.1058349609375,0.07831406593322754
1731409785979399400,3.6263994140625,0.19267511367797852,0.08472156524658203,0.09013938903808594
1731409785989204700,3.636204833984375,0.14791154861450195,0.07654619216918945,0.09247803688049316
1731409785999009300,3.64600927734375,0.09197235107421875,0.05487823486328125,0.05962085723876953
1731409786008814800,3.65581494140625,0.06474637985229492,0.01445627212524414,0.03232407569885254
1731409786018621000,3.665620849609375,0.08235740661621094,-0.02876424789428711,0.007372140884399414
1731409786028426200,3.67542626953125,0.04368019104003906,-0.022780895233154297,0.0015375614166259766
1731409786038230800,3.685230712890625,0.022564411163330078,0.008491992950439453,0.007920980453491211
1731409786048036000,3.6950361328125,0.003185749053955078,-0.0014066696166992188,-0.016164541244506836
1731409786057842400,3.704842529296875,-0.00931406021118164,-0.032782554626464844,-0.014074563980102539
1731409786067647700,3.714647705078125,0.03241777420043945,-0.06166887283325195,0.03213334083557129
1731409786077452300,3.724452392578125,0.047686100006103516,-0.0902872085571289,0.07224774360656738
1731409786087257600,3.734257568359375,0.01557016372680664,-0.04538297653198242,0.11188960075378418
1731409786097063700,3.744063720703125,-0.026062965393066406,-0.013300895690917969,0.08532500267028809
1731409786106869000,3.753868896484375,-0.04952430725097656,-0.022144317626953125,0.07702207565307617
1731409786116673500,3.763673583984375,-0.05528688430786133,-0.021770477294921875,0.0752115249633789
1731409786126479000,3.77347900390625,0.006170749664306641,-0.014640331268310547,0.07458138465881348
1731409786136285200,3.78328515625,0.0709686279296875,-0.0005831718444824219,0.06266951560974121
1731409786146090500,3.793090576171875,0.05947303771972656,0.051233768463134766,0.056114912033081055
1731409786155895000,3.80289501953125,0.06485176086425781,0.09795761108398438,0.05499529838562012
1731409786165700400,3.812700439453125,0.04209423065185547,0.09718656539916992,0.018985271453857422
1731409786175506700,3.822506591796875,0.07663393020629883,0.09673357009887695,-0.023535728454589844
1731409786185312000,3.83231201171875,0.10673284530639648,0.058945655822753906,-0.04715895652770996
1731409786195116500,3.842116455078125,0.08816051483154297,0.03399085998535156,-0.07381200790405273
1731409786204921900,3.851921875,0.047542572021484375,0.02633953094482422,-0.09394192695617676
1731409786214728000,3.86172802734375,0.025143146514892578,0.05674123764038086,-0.13130664825439453
1731409786224533200,3.871533203125,0.019936561584472656,0.056073665618896484,-0.1166830062866211
1731409786234337800,3.881337890625,-0.009876728057861328,0.031488895416259766,-0.0989832878112793
1731409786244143400,3.891143310546875,-0.005757331848144531,-0.009788036346435547,-0.07999491691589355
1731409786253949400,3.900949462890625,0.018368244171142578,-0.02493143081665039,-0.046427011489868164
1731409786263754800,3.910754638671875,0.04449033737182617,-0.02111530303955078,0.012151479721069336
1731409786273559300,3.920559326171875,0.13947725296020508,-0.047818660736083984,-0.011532783508300781
1731409786283364600,3.930364501953125,0.19195842742919922,-0.09008455276489258,-0.07843971252441406
1731409786293171000,3.9401708984375,0.1688675880432129,-0.08672618865966797,-0.07653474807739258
1731409786302976300,3.949976318359375,0.06328630447387695,-0.02899646759033203,-0.009844064712524414
1731409786312780800,3.95978076171875,-0.08415985107421875,0.03252696990966797,0.09768962860107422
1731409786322586000,3.969586181640625,-0.13373708724975586,0.045601844787597656,0.10788583755493164
1731409786332392400,3.979392333984375,-0.11433029174804688,0.057991981506347656,0.05360078811645508
1731409786342197800,3.98919775390625,-0.09471750259399414,0.06752252578735352,-0.0505828857421875
1731409786352002000,3.999001953125,-0.09353256225585938,0.05108308792114258,-0.15159153938293457
1731409786361807600,4.0088076171875,-0.03535652160644531,0.009060382843017578,-0.2233445644378662
1731409786371613700,4.01861376953125,-0.01094961166381836,0.0031523704528808594,-0.19506525993347168
1731409786381419000,4.0284189453125,0.04137420654296875,0.018720149993896484,-0.1387500762939453
1731409786391223600,4.0382236328125,0.13135099411010742,0.05073881149291992,-0.08653640747070312
1731409786401028900,4.04802880859375,0.1909937858581543,0.0637507438659668,-0.02766871452331543
1731409786410835200,4.057835205078125,0.19473791122436523,0.039281368255615234,0.021602630615234375
1731409786420640500,4.067640625,0.1359705924987793,0.02752542495727539,0.05062294006347656
1731409786430445000,4.077445068359375,0.08802413940429688,0.011492252349853516,0.09546828269958496
1731409786440250400,4.08725048828125,0.07130718231201172,0.0029439926147460938,0.10009360313415527
1731409786450056700,4.097056640625,0.0801229476928711,-0.005867481231689453,0.017685651779174805
1731409786459862000,4.106862060546875,0.05750226974487305,-0.01031637191772461,-0.056241750717163086
1731409786469666600,4.11666650390625,0.034490108489990234,-0.034211158752441406,-0.09383225440979004
1731409786479471900,4.126471923828125,0.0017590522766113281,-0.041570186614990234,-0.08101654052734375
1731409786489278000,4.13627783203125,-0.026493549346923828,-0.027573108673095703,-0.06247305870056152
1731409786499083300,4.146083251953125,-0.029625415802001953,-0.01866436004638672,-0.04504108428955078
1731409786508887800,4.1558876953125,0.03920125961303711,-0.0337214469909668,-0.033919572830200195
1731409786518693400,4.165693359375,0.13958311080932617,-0.03226327896118164,0.0028705596923828125
1731409786528499500,4.17549951171875,0.19142675399780273,-0.016983509063720703,0.014634370803833008
1731409786538304800,4.1853046875,0.2003798484802246,0.0024280548095703125,-0.0031952857971191406
1731409786548109300,4.195109375,0.12931251525878906,0.019139766693115234,-0.0021920204162597656
1731409786557914600,4.20491455078125,0.09246826171875,0.012308597564697266,-0.010199785232543945
1731409786567720700,4.214720703125,0.0993800163269043,0.013317108154296875,-0.02026057243347168
1731409786577526300,4.2245263671875,0.14542245864868164,0.029413700103759766,-0.05645298957824707
1731409786587330800,4.234330810546875,0.14287805557250977,0.0037131309509277344,-0.08099102973937988
1731409786597136100,4.24413623046875,0.11995220184326172,-0.006968975067138672,-0.04883146286010742
1731409786606942200,4.253942138671875,0.06457376480102539,-0.00555419921875,-0.021810293197631836
1731409786616747500,4.26374755859375,0.0500946044921875,0.031236648559570312,-0.011485576629638672
1731409786626552000,4.273552001953125,0.03376007080078125,0.04393768310546875,-0.0015873908996582031
1731409786636357600,4.283357666015625,0.02039337158203125,0.023641586303710938,-0.010858535766601562
1731409786646163700,4.293163818359375,0.028818607330322266,-0.010098934173583984,-0.031641483306884766
1731409786655969000,4.302968994140625,0.030204296112060547,-0.04053688049316406,-0.07981991767883301
1731409786665773600,4.312773681640625,0.0433344841003418,-0.06813430786132812,-0.1625499725341797
1731409786675579000,4.322578857421875,0.055947303771972656,-0.06747007369995117,-0.1996145248413086
1731409786685385000,4.332385009765625,0.03946065902709961,-0.029684066772460938,-0.13258028030395508
1731409786695190500,4.3421904296875,0.03185558319091797,-0.02586841583251953,-0.05915331840515137
1731409786704994800,4.351994873046875,-0.0025429725646972656,-0.04126739501953125,-0.014307498931884766
1731409786714800400,4.36180029296875,-0.013630867004394531,-0.05221223831176758,-0.026517391204833984
1731409786724606500,4.3716064453125,0.03903484344482422,-0.0655202865600586,-0.0318448543548584
1731409786734411800,4.381411865234375,0.041387081146240234,-0.07156515121459961,-0.025355815887451172
1731409786744216300,4.39121630859375,0.017333030700683594,-0.0752401351928711,-0.03021383285522461
1731409786754021600,4.401021728515625,-0.031054019927978516,-0.0654764175415039,-0.05116772651672363
1731409786763828000,4.410827880859375,-0.04476451873779297,-0.06394147872924805,-0.06453752517700195
1731409786773633300,4.42063330078125,-0.009741783142089844,-0.060782432556152344,-0.08239173889160156
1731409786783437800,4.430437744140625,0.02936410903930664,-0.05778169631958008,-0.10716032981872559
1731409786793243100,4.4402431640625,0.032971858978271484,-0.028594017028808594,-0.0679779052734375
1731409786803049200,4.45004931640625,-0.012450218200683594,-0.013565540313720703,0.01311349868774414
1731409786812854800,4.459854736328125,-0.042940616607666016,-0.00822305679321289,0.03859758377075195
1731409786822659000,4.4696591796875,-0.07367944717407227,-0.0413355827331543,0.02573394775390625
1731409786832464600,4.479464599609375,-0.027321338653564453,-0.0464329719543457,-0.010372638702392578
1731409786842270700,4.489270751953125,-0.04637002944946289,-0.06359529495239258,-0.04740571975708008
1731409786852076000,4.499075927734375,-0.03510427474975586,-0.08992862701416016,-0.11597800254821777
1731409786861880600,4.508880615234375,-0.016541004180908203,-0.0709233283996582,-0.1295607089996338
1731409786871686000,4.518685791015625,0.03599739074707031,-0.028247833251953125,-0.10868501663208008
1731409786881492200,4.5284921875,0.10589456558227539,-0.011327743530273438,-0.07258749008178711
1731409786891297500,4.538297607421875,0.1289963722229004,0.0014972686767578125,-0.058658599853515625
1731409786901102000,4.54810205078125,0.09131288528442383,0.019432544708251953,-0.042584896087646484
1731409786910907400,4.557907470703125,0.056993961334228516,-0.019133567810058594,-0.06442475318908691
1731409786920713500,4.56771337890625,0.02093791961669922,-0.04303884506225586,-0.05557084083557129
1731409786930518800,4.577518798828125,-0.0032982826232910156,-0.07878351211547852,-0.051679134368896484
1731409786940323300,4.5873232421875,-0.0211334228515625,-0.12147712707519531,-0.051947832107543945
1731409786950129000,4.59712890625,-0.04487466812133789,-0.1403517723083496,-0.08148574829101562
1731409786959935000,4.60693505859375,-0.04125499725341797,-0.12388801574707031,-0.092742919921875
1731409786969740300,4.616740234375,0.018500804901123047,-0.053420066833496094,-0.09840941429138184
1731409786979544800,4.626544921875,0.09224510192871094,-0.007412910461425781,-0.10473942756652832
1731409786989350100,4.63635009765625,0.16626596450805664,0.0333256721496582,-0.10569143295288086
1731409786999156200,4.64615625,0.13393306732177734,0.010056495666503906,-0.09559035301208496
1731409787008961800,4.6559619140625,0.03566694259643555,-0.04343891143798828,-0.05662393569946289
1731409787018766300,4.665766357421875,-0.04799318313598633,-0.07274246215820312,-0.05241751670837402
1731409787028571600,4.675571533203125,-0.06271553039550781,-0.08290672302246094,-0.07348227500915527
1731409787038377700,4.685377685546875,0.0005383491516113281,-0.0670022964477539,-0.08013296127319336
1731409787048183000,4.69518310546875,0.02776479721069336,-0.07020425796508789,-0.0989525318145752
1731409787057987600,4.704987548828125,0.014125823974609375,-0.04760456085205078,-0.08423018455505371
1731409787067793000,4.71479296875,-0.009738445281982422,0.00016021728515625,-0.02658367156982422
1731409787077599200,4.72459912109375,-0.014849662780761719,0.05184602737426758,0.04492020606994629
1731409787087404500,4.734404541015625,0.0325627326965332,0.058132171630859375,0.03933286666870117
1731409787097209000,4.744208984375,0.07153844833374023,-0.0013194084167480469,-0.01994180679321289
1731409787107014400,4.754014404296875,0.09061670303344727,-0.01667165756225586,-0.05368542671203613
1731409787116820500,4.763820556640625,0.08215522766113281,-0.05001354217529297,-0.06129932403564453
1731409787126625800,4.773625732421875,0.0004177093505859375,-0.061524391174316406,-0.07505297660827637
1731409787136430300,4.783430419921875,-0.04114246368408203,-0.040322303771972656,-0.0735781192779541
1731409787146236000,4.79323583984375,-0.01203012466430664,0.013193130493164062,-0.06706690788269043
1731409787156042000,4.8030419921875,0.04022645950317383,0.060758113861083984,-0.07794833183288574
1731409787165847300,4.812847412109375,0.042731285095214844,0.09099674224853516,-0.05659627914428711
1731409787175651800,4.82265185546875,0.012364387512207031,0.09001398086547852,-0.02658557891845703
1731409787185457200,4.83245703125,-0.022425174713134766,0.05373573303222656,0.019716262817382812
1731409787195263500,4.842263427734375,-0.009510993957519531,0.004218101501464844,0.03042149543762207
1731409787205068800,4.85206884765625,0.04877805709838867,-0.006170749664306641,0.03154444694519043
1731409787214873000,4.861873046875,0.06967735290527344,-0.018154621124267578,-0.012720584869384766
1731409787224678700,4.8716787109375,0.06052350997924805,-0.01082468032836914,-0.08759045600891113
1731409787234484700,4.881484619140625,0.01393747329711914,0.06442928314208984,-0.09114336967468262
1731409787244290000,4.8912900390625,-0.02335977554321289,0.11194181442260742,-0.05448150634765625
1731409787254094600,4.901094482421875,0.01435232162475586,0.0851583480834961,0.0007309913635253906
1731409787263900000,4.91089990234375,0.07737302780151367,0.040181636810302734,0.04592442512512207
1731409787273706200,4.920706298828125,0.1261157989501953,0.036711692810058594,0.09993553161621094
1731409787283511600,4.930511474609375,0.09516143798828125,0.017641544342041016,0.14828944206237793
1731409787293316000,4.940316162109375,0.03228282928466797,-0.026813983917236328,0.12484431266784668
1731409787303121400,4.950121337890625,-0.021199703216552734,-0.06656789779663086,0.09008002281188965
1731409787312927500,4.959927490234375,-0.05706071853637695,-0.08106470108032227,0.06577444076538086
1731409787322732800,4.96973291015625,-0.04268312454223633,-0.10822772979736328,0.0333101749420166
1731409787332537300,4.979537353515625,-0.03467607498168945,-0.04593801498413086,0.040191650390625
1731409787342343000,4.989343017578125,-0.01798868179321289,0.05269002914428711,0.03547358512878418
1731409787352149000,4.99914892578125,0.03407621383666992,0.08861637115478516,0.025921106338500977
1731409787361954300,5.008954345703125,0.13835525512695312,0.07498741149902344,0.04857611656188965
1731409787371758800,5.0187587890625,0.20486068725585938,0.02021646499633789,0.04930877685546875
1731409787381564200,5.028564208984375,0.16975164413452148,-0.032544612884521484,0.05115556716918945
1731409787391370200,5.038370361328125,0.09044981002807617,-0.06499719619750977,0.0542140007019043
1731409787401175600,5.048175537109375,0.07607650756835938,-0.049719810485839844,0.0008671283721923828
1731409787410980000,5.05797998046875,0.036133766174316406,-0.030482769012451172,-0.05504751205444336
1731409787420785700,5.06778564453125,-0.01743936538696289,0.013815879821777344,-0.07784080505371094
1731409787430591700,5.077591796875,-0.01648998260498047,0.05222177505493164,-0.03212428092956543
1731409787440397000,5.08739697265625,-0.0017786026000976562,0.07355260848999023,0.03459739685058594
1731409787450201600,5.09720166015625,0.05797433853149414,0.08105897903442383,0.07951784133911133
1731409787460007000,5.1070068359375,0.1416916847229004,0.04460716247558594,0.10460400581359863
1731409787469813000,5.11681298828125,0.17150115966796875,0.016783714294433594,0.06291699409484863
1731409787479618300,5.126618408203125,0.15929794311523438,-0.007807731628417969,-0.034984588623046875
1731409787489422800,5.1364228515625,0.09546089172363281,-0.0060749053955078125,-0.0864248275756836
1731409787499228400,5.146228515625,0.032382965087890625,0.00972890853881836,-0.0730595588684082
1731409787509034500,5.156034423828125,0.03417491912841797,0.025344371795654297,-0.04601120948791504
1731409787518839800,5.16583984375,0.07677173614501953,0.04585981369018555,0.02033686637878418
1731409787528644400,5.175644287109375,0.10539102554321289,0.010095596313476562,0.0854644775390625
1731409787538449700,5.18544970703125,0.11298704147338867,-0.04100465774536133,0.13789105415344238
1731409787548255700,5.195255859375,0.10397672653198242,-0.08876180648803711,0.1520400047302246
1731409787558061000,5.20506103515625,0.07367181777954102,-0.0912165641784668,0.10231161117553711
1731409787567865600,5.214865478515625,0.031416893005371094,-0.06362533569335938,0.03436756134033203
1731409787577671200,5.224671142578125,-0.027640819549560547,-0.05130577087402344,-0.013495922088623047
1731409787587477200,5.234477294921875,-0.08948135375976562,-0.030543804168701172,0.0011594295501708984
1731409787597282600,5.244282470703125,-0.08060693740844727,0.01052093505859375,0.029982328414916992
1731409787607087000,5.254087158203125,-0.03215646743774414,0.012812614440917969,0.03437924385070801
1731409787616892400,5.263892333984375,0.00397491455078125,0.003207683563232422,0.03345203399658203
1731409787626698500,5.273698486328125,0.013822555541992188,0.0077342987060546875,0.013094425201416016
1731409787636504000,5.283504150390625,-0.0243072509765625,-0.006938934326171875,0.014737367630004883
1731409787646308400,5.293308349609375,-0.04665184020996094,0.0016150474548339844,0.014805793762207031
1731409787656114000,5.303114013671875,-0.037077903747558594,0.04225969314575195,0.03430461883544922
1731409787665920000,5.312919921875,-0.03793764114379883,0.032311439514160156,0.03493094444274902
1731409787675725300,5.322725341796875,-0.04362058639526367,0.010610580444335938,0.04956221580505371
1731409787685529900,5.33252978515625,-0.04912424087524414,-0.015286922454833984,0.031160354614257812
1731409787695335200,5.342335205078125,-0.05667877197265625,-0.01948261260986328,-0.00356292724609375
1731409787705141200,5.352141357421875,-0.06380605697631836,-0.00479888916015625,-0.03818845748901367
1731409787714946800,5.36194677734375,-0.040164947509765625,0.05176258087158203,-0.06103205680847168
1731409787724751000,5.371751220703125,0.07001829147338867,0.019794940948486328,-0.09127116203308105
1731409787734556700,5.381556640625,0.17395591735839844,-0.009333610534667969,-0.09328436851501465
1731409787744362800,5.39136279296875,0.12364912033081055,0.019088268280029297,-0.054863691329956055
1731409787754168000,5.40116796875,0.03458547592163086,0.0760040283203125,0.04257774353027344
1731409787763972600,5.41097265625,-0.052907466888427734,0.10158395767211914,0.10103225708007812
1731409787773778000,5.42077783203125,-0.07597684860229492,0.029426097869873047,0.06363224983215332
1731409787783584000,5.430583984375,-0.033559322357177734,-0.051801204681396484,0.026317119598388672
1731409787793389300,5.440389404296875,-0.01146078109741211,-0.06588506698608398,-0.00010919570922851562
1731409787803193900,5.45019384765625,-0.009215831756591797,-0.04414844512939453,-0.0034456253051757812
1731409787812999400,5.45999951171875,0.035880088806152344,-0.005986213684082031,-0.030394315719604492
1731409787822805500,5.469805419921875,0.13142824172973633,0.04376029968261719,-0.04439115524291992
1731409787832610800,5.47961083984375,0.19008588790893555,0.0745997428894043,-0.05295848846435547
1731409787842415400,5.489415283203125,0.12903594970703125,0.07491636276245117,-0.05738520622253418
1731409787852220700,5.499220703125,0.016866207122802734,0.04704618453979492,-0.056404829025268555
1731409787862026800,5.50902685546875,-0.06189727783203125,0.011982917785644531,-0.028711795806884766
1731409787871832000,5.51883203125,-0.06513261795043945,-0.015904903411865234,0.0274202823638916
1731409787881636600,5.52863671875,-0.03805398941040039,-0.0317835807800293,0.05675625801086426
1731409787891442200,5.538442138671875,0.019650936126708984,-0.021291732788085938,0.05944991111755371
1731409787901248300,5.548248291015625,0.041812896728515625,-0.003623485565185547,0.02396535873413086
1731409787911053600,5.558053466796875,0.0806875228881836,-0.004561424255371094,-0.010742425918579102
1731409787920858000,5.567858154296875,0.07461309432983398,0.004307270050048828,-0.021193981170654297
1731409787930663400,5.577663330078125,0.05695533752441406,0.01790332794189453,-0.021846294403076172
1731409787940469500,5.587469482421875,0.03252887725830078,0.026519775390625,0.00803065299987793
1731409787950274800,5.59727490234375,0.034534454345703125,0.03268241882324219,0.04202103614807129
1731409787960079400,5.607079345703125,0.048621177673339844,0.013183116912841797,0.06150507926940918
1731409787969884700,5.616884765625,0.03906106948852539,-0.03400754928588867,0.03621697425842285
1731409787979691000,5.62669091796875,0.0057735443115234375,-0.023903846740722656,0.0000820159912109375
1731409787989496300,5.636496337890625,-0.013694286346435547,-0.021441936492919922,-0.027985334396362305
1731409787999300900,5.64630078125,-0.04568338394165039,-0.00784921646118164,-0.034067630767822266
1731409788009106200,5.656106201171875,-0.0471806526184082,0.00991201400756836,-0.0044438838958740234
1731409788018912300,5.665912353515625,-0.034571170806884766,0.02512836456298828,0.034372568130493164
1731409788028717600,5.675717529296875,-0.028632164001464844,0.02860736846923828,0.022823095321655273
1731409788038522000,5.685522216796875,0.03478384017944336,0.034725189208984375,-0.010565996170043945
1731409788048327400,5.695327392578125,0.03675079345703125,0.017625808715820312,-0.01074528694152832
1731409788058133500,5.705133544921875,0.008167266845703125,0.00799703598022461,-0.0013828277587890625
1731409788067939000,5.71493896484375,-0.015490055084228516,0.008056640625,0.015475034713745117
1731409788077743400,5.724743408203125,-0.04149436950683594,0.005724430084228516,-0.0027840137481689453
1731409788087549000,5.734548828125,-0.038858890533447266,-0.0013985633850097656,-0.03269243240356445
1731409788097355000,5.74435498046875,-0.04551124572753906,-0.017888545989990234,-0.04600381851196289
1731409788107160300,5.754160400390625,-0.07328367233276367,-0.03898429870605469,-0.033479928970336914
1731409788116964900,5.76396484375,-0.07996511459350586,-0.04353666305541992,-0.03271627426147461
1731409788126770200,5.773770263671875,-0.05156660079956055,-0.0458674430847168,-0.0389554500579834
1731409788136576300,5.783576171875,0.009015560150146484,-0.020073890686035156,-0.037930965423583984
1731409788146381800,5.7933818359375,0.028738021850585938,0.0076618194580078125,-0.04419422149658203
1731409788156186000,5.80318603515625,0.04856395721435547,0.011620044708251953,-0.052866458892822266
1731409788165991400,5.812991455078125,0.016438961029052734,0.010890007019042969,-0.028506994247436523
1731409788175797800,5.8227978515625,-0.05769824981689453,0.017051219940185547,-0.028217792510986328
1731409788185603000,5.83260302734375,-0.09567499160766602,0.018114566802978516,0.0002918243408203125
1731409788195407600,5.84240771484375,-0.058458805084228516,-0.012209892272949219,0.013770103454589844
1731409788205213000,5.852212890625,0.026885032653808594,-0.11571168899536133,-0.025198936462402344
1731409788215019000,5.86201904296875,0.07985687255859375,-0.14467239379882812,-0.05394458770751953
1731409788224824300,5.87182421875,0.021082401275634766,-0.0904388427734375,-0.05538654327392578
1731409788234628900,5.88162890625,-0.022975444793701172,-0.006288051605224609,0.0030274391174316406
1731409788244434200,5.89143408203125,-0.0009856224060058594,0.04066181182861328,0.020324230194091797
1731409788254240500,5.901240478515625,0.024955272674560547,0.022583484649658203,0.0011970996856689453
1731409788264045800,5.9110458984375,0.0432276725769043,-0.011982440948486328,0.0055484771728515625
1731409788273850400,5.920850341796875,0.023570537567138672,-0.02461528778076172,-0.01815629005432129
1731409788283655700,5.93065576171875,-0.033514976501464844,-0.013303756713867188,-0.05038332939147949
1731409788293461800,5.940461669921875,-0.049630165100097656,-0.0091552734375,-0.08190202713012695
1731409788303267000,5.95026708984375,-0.0011806488037109375,0.00922393798828125,-0.09710001945495605
1731409788313071600,5.960071533203125,0.03812360763549805,0.04420137405395508,-0.07268953323364258
1731409788322877000,5.969876953125,0.07078981399536133,0.09314489364624023,-0.056414127349853516
1731409788332683000,5.97968310546875,0.0565185546875,0.08058977127075195,-0.026198148727416992
1731409788342488300,5.98948828125,0.004861354827880859,0.040262699127197266,-0.03132438659667969
1731409788352292900,5.99929296875,-0.0037326812744140625,0.054753780364990234,0.001543283462524414
1731409788362098400,6.009098388671875,0.022998809814453125,0.035924434661865234,-0.0015106201171875
1731409788371904500,6.018904541015625,0.023475170135498047,0.036139488220214844,-0.03309202194213867
1731409788381709800,6.028709716796875,-0.011501312255859375,0.033860206604003906,-0.09484601020812988
1731409788391514400,6.038514404296875,0.0008416175842285156,0.01701974868774414,-0.12543320655822754
1731409788401319700,6.048319580078125,-0.011170387268066406,-0.007006168365478516,-0.12016463279724121
1731409788411125800,6.058125732421875,-0.006979465484619141,-0.000060558319091796875,-0.07907605171203613
1731409788420931000,6.06793115234375,0.02098560333251953,0.014203071594238281,-0.012456178665161133
1731409788430735600,6.077735595703125,0.06364917755126953,0.02629709243774414,0.019492626190185547
1731409788440541000,6.087541015625,0.055065155029296875,0.03160858154296875,0.04541945457458496
1731409788450347000,6.097346923828125,-0.016679763793945312,-0.009839534759521484,0.04548525810241699
1731409788460152300,6.10715234375,-0.05269479751586914,-0.0364532470703125,0.030193090438842773
1731409788469956900,6.116956787109375,-0.09599590301513672,-0.055919647216796875,-0.015028953552246094
1731409788479762400,6.126762451171875,-0.09196758270263672,-0.05420064926147461,-0.052428245544433594
1731409788489568500,6.136568603515625,-0.07126760482788086,-0.036040306091308594,-0.05427193641662598
1731409788499373800,6.146373779296875,-0.01486349105834961,-0.008594989776611328,-0.03793168067932129
1731409788509178400,6.156178466796875,0.03662872314453125,0.006981849670410156,0.0037317276000976562
1731409788518983700,6.165983642578125,0.026185989379882812,-0.005537986755371094,0.0618281364440918
1731409788528789800,6.175789794921875,-0.015161991119384766,-0.04113292694091797,0.09424161911010742
1731409788538595000,6.185594970703125,-0.028305530548095703,-0.059679508209228516,0.0776512622833252
1731409788548399600,6.195399658203125,-0.03686857223510742,-0.0592198371887207,0.05212712287902832
1731409788558205000,6.205204833984375,-0.04555082321166992,-0.05913734436035156,-0.015728235244750977
1731409788568011000,6.215010986328125,-0.030809402465820312,-0.04306507110595703,-0.07365655899047852
1731409788577816300,6.22481640625,-0.02158641815185547,-0.03712177276611328,-0.0836493968963623
1731409788587620900,6.234620849609375,-0.032174110412597656,-0.0128021240234375,-0.04126429557800293
1731409788597426400,6.244426513671875,-0.024578094482421875,0.02031707763671875,-0.008291006088256836
1731409788607232500,6.254232421875,-0.010567188262939453,0.01982402801513672,0.024642467498779297
1731409788617037800,6.264037841796875,0.007874488830566406,0.012210369110107422,0.07106828689575195
1731409788626842400,6.27384228515625,0.07378578186035156,0.00018644332885742188,0.08078575134277344
1731409788636647700,6.283647705078125,0.08749961853027344,-0.02565145492553711,0.05664229393005371
1731409788646453800,6.293453857421875,0.0305328369140625,-0.024895668029785156,0.06144356727600098
1731409788656259000,6.303259033203125,-0.04723787307739258,0.006449222564697266,0.03396892547607422
1731409788666063600,6.313063720703125,-0.006394386291503906,-0.005471229553222656,0.00674891471862793
1731409788675869000,6.322868896484375,0.0953226089477539,-0.040802955627441406,-0.015928983688354492
1731409788685675300,6.33267529296875,0.15632247924804688,-0.04219675064086914,-0.04823708534240723
1731409788695480600,6.34248046875,0.113677978515625,-0.010014533996582031,-0.02127242088317871
1731409788705284900,6.352284912109375,0.05099296569824219,0.02203083038330078,0.02663564682006836
1731409788715090400,6.36209033203125,-0.0016222000122070312,0.04384565353393555,0.05252885818481445
1731409788724896500,6.371896484375,-0.07097530364990234,0.026905059814453125,0.03570103645324707
1731409788734701800,6.381701904296875,-0.107391357421875,-0.013944625854492188,-0.011156558990478516
1731409788744506400,6.39150634765625,-0.06812810897827148,-0.044899940490722656,-0.08318734169006348
1731409788754311700,6.401311767578125,-0.029216766357421875,-0.02820587158203125,-0.12844347953796387
1731409788764117800,6.41111767578125,-0.01406097412109375,0.021318435668945312,-0.10026049613952637
1731409788773923000,6.420923095703125,0.04116630554199219,0.05599546432495117,-0.07746434211730957
1731409788783727600,6.4307275390625,0.07750797271728516,0.08335638046264648,-0.06028914451599121
1731409788793533000,6.440532958984375,0.06707382202148438,0.07547569274902344,-0.04828953742980957
1731409788803339000,6.450339111328125,0.04133749008178711,0.05902528762817383,-0.06465721130371094
1731409788813144300,6.460144287109375,0.052388668060302734,0.0292510986328125,-0.09287762641906738
1731409788822948900,6.469948974609375,0.036008358001708984,-0.0066070556640625,-0.0998239517211914
1731409788832754200,6.479754150390625,-0.010442733764648438,-0.029906749725341797,-0.09956479072570801
1731409788842560500,6.489560546875,-0.037415504455566406,-0.01741933822631836,-0.07541775703430176
1731409788852365800,6.49936572265625,-0.024135112762451172,-0.0004029273986816406,-0.07957148551940918
1731409788862170400,6.50917041015625,-0.020537853240966797,0.0019998550415039062,-0.06046628952026367
1731409788871975700,6.5189755859375,-0.024152278900146484,0.004230022430419922,-0.013577699661254883
1731409788881781800,6.52878173828125,0.01231241226196289,-0.024083614349365234,0.03743934631347656
1731409788891587000,6.538587158203125,0.045902252197265625,-0.06112480163574219,0.033779144287109375
1731409788901391600,6.5483916015625,0.04575347900390625,-0.08351421356201172,0.027942180633544922
1731409788911197000,6.558197021484375,0.021148681640625,-0.08017587661743164,0.04589343070983887
1731409788921003000,6.5680029296875,-0.013684749603271484,-0.05627870559692383,0.0852348804473877
1731409788930808300,6.577808349609375,-0.011271953582763672,-0.016668319702148438,0.09864234924316406
1731409788940612900,6.58761279296875,-0.023635387420654297,0.015216827392578125,0.11500144004821777
1731409788950418200,6.597418212890625,-0.038496971130371094,0.006201744079589844,0.060230255126953125
1731409788960224300,6.607224365234375,-0.027084827423095703,0.009037971496582031,-0.015136241912841797
1731409788970029800,6.61702978515625,-0.008800029754638672,0.009445667266845703,-0.07282471656799316
1731409788979834000,6.626834228515625,0.002205371856689453,0.0004634857177734375,-0.09194207191467285
1731409788989639700,6.6366396484375,0.017823219299316406,0.017428874969482422,-0.06397700309753418
1731409788999445800,6.64644580078125,0.005061626434326172,0.05543375015258789,0.024819612503051758
1731409789009251000,6.6562509765625,0.037418365478515625,0.057581424713134766,0.053223371505737305
1731409789019055600,6.6660556640625,0.0456080436706543,0.062166690826416016,0.06267118453979492
1731409789028861000,6.67586083984375,0.013247013092041016,0.0665740966796875,0.04403233528137207
1731409789038667000,6.6856669921875,0.02846527099609375,0.06159496307373047,-0.006991863250732422
1731409789048472300,6.695472412109375,0.06087017059326172,0.05004596710205078,-0.0811758041381836
1731409789058276900,6.70527685546875,0.03972625732421875,0.051015377044677734,-0.1262807846069336
1731409789068082200,6.715082275390625,-0.015546798706054688,0.05006599426269531,-0.15200352668762207
1731409789077888300,6.72488818359375,-0.029613018035888672,0.04939460754394531,-0.13003826141357422
1731409789087693600,6.734693603515625,-0.057219505310058594,0.07015562057495117,-0.07312560081481934
1731409789097498000,6.744498046875,-0.046346187591552734,0.06495189666748047,-0.03119945526123047
1731409789107303400,6.754303466796875,-0.01380777359008789,0.04126453399658203,0.021448135375976562
1731409789117109500,6.764109619140625,-0.03037261962890625,0.039685726165771484,0.047205209732055664
1731409789126915000,6.7739150390625,-0.0344090461730957,0.05714225769042969,0.03457355499267578
1731409789136719400,6.78371923828125,0.022696495056152344,0.005758762359619141,-0.05827140808105469
1731409789146525000,6.79352490234375,0.07841062545776367,-0.047646522521972656,-0.1264955997467041
1731409789156331000,6.8033310546875,0.09762048721313477,-0.053194522857666016,-0.15579891204833984
1731409789166136300,6.81313623046875,0.04571056365966797,-0.02115774154663086,-0.09291720390319824
1731409789175940900,6.82294091796875,-0.029007434844970703,0.033756256103515625,0.022974491119384766
1731409789185746200,6.83274609375,-0.08652687072753906,0.021589279174804688,0.11124348640441895
1731409789195552300,6.84255224609375,-0.10865211486816406,-0.0026140213012695312,0.09233641624450684
1731409789205357600,6.852357666015625,-0.07957935333251953,0.003780841827392578,0.03419089317321777
1731409789215162000,6.862162109375,-0.058489322662353516,0.009923458099365234,-0.03446364402770996
1731409789224967400,6.871967529296875,-0.04228401184082031,0.025424480438232422,-0.07857847213745117
1731409789234773500,6.8817734375,0.028848648071289062,0.04582929611206055,-0.07772588729858398
1731409789244578800,6.891578857421875,0.14780569076538086,0.061991214752197266,-0.05195760726928711
1731409789254383400,6.90138330078125,0.2221541404724121,0.07177209854125977,0.026620864868164062
1731409789264188700,6.911188720703125,0.18597412109375,0.06811380386352539,0.10612630844116211
1731409789273994800,6.920994873046875,0.08474349975585938,0.04385519027709961,0.14263248443603516
1731409789283800000,6.930800048828125,0.031627655029296875,0.038660526275634766,0.1319730281829834
1731409789293604600,6.9406044921875,0.011478900909423828,0.019077777862548828,0.11254286766052246
1731409789303410000,6.950409912109375,0.016819477081298828,-0.0027818679809570312,0.0515592098236084
1731409789313216300,6.96021630859375,0.000270843505859375,-0.015049934387207031,-0.0009059906005859375
1731409789323021600,6.970021484375,-0.009244441986083984,-0.022464275360107422,-0.052202463150024414
1731409789332825900,6.979825927734375,0.005070209503173828,-0.01806926727294922,-0.06768298149108887
1731409789342631400,6.98963134765625,0.01927661895751953,-0.011333942413330078,-0.017046451568603516
1731409789352437500,6.9994375,-0.004551887512207031,-0.011816024780273438,0.0257720947265625
1731409789362242800,7.009242919921875,0.004888057708740234,-0.007407665252685547,0.05422067642211914
1731409789372047400,7.01904736328125,0.021275997161865234,-0.019507884979248047,0.07280659675598145
1731409789381852700,7.028852783203125,0.02099752426147461,-0.02429962158203125,0.027489423751831055
1731409789391658800,7.03865869140625,-0.0007710456848144531,-0.05028867721557617,0.006703376770019531
1731409789401464000,7.048464111328125,-0.022832393646240234,-0.07374095916748047,-0.006291389465332031
1731409789411268600,7.0582685546875,-0.026435375213623047,-0.09005022048950195,-0.004561901092529297
1731409789421074000,7.068073974609375,-0.01419687271118164,-0.08291101455688477,0.004410505294799805
1731409789430880000,7.0778798828125,-0.03573179244995117,-0.03392601013183594,0.029717445373535156
1731409789440685300,7.087685302734375,-0.043351173400878906,0.0068416595458984375,0.05469202995300293
1731409789450489900,7.09748974609375,-0.02974414825439453,-0.012042999267578125,0.06500697135925293
1731409789460295200,7.107295166015625,-0.0207672119140625,-0.018695354461669922,0.03736233711242676
1731409789470101500,7.1171015625,-0.016213417053222656,-0.027255535125732422,0.024386882781982422
1731409789479906800,7.12690673828125,0.0005159378051757812,-0.05415630340576172,-0.03540158271789551
1731409789489711000,7.136711181640625,0.012693405151367188,-0.068572998046875,-0.07071375846862793
1731409789499516400,7.146516357421875,0.00840616226196289,-0.07084417343139648,-0.07015252113342285
1731409789509322800,7.15632275390625,-0.019744873046875,-0.019119739532470703,-0.024720430374145508
1731409789519128000,7.166128173828125,-0.04337358474731445,0.0359807014465332,0.0034203529357910156
1731409789528932600,7.1759326171875,-0.07419586181640625,0.07550954818725586,0.018972396850585938
1731409789538738000,7.185738037109375,-0.05981731414794922,0.027156352996826172,0.029380083084106445
1731409789548544000,7.1955439453125,-0.05962944030761719,-0.010930061340332031,0.008861064910888672
1731409789558349300,7.205349365234375,-0.04021883010864258,-0.02223682403564453,-0.032536983489990234
1731409789568153900,7.21515380859375,-0.025315284729003906,-0.044877052307128906,-0.07580947875976562
1731409789577959200,7.224959228515625,-0.03620719909667969,-0.036489009857177734,-0.11403250694274902
1731409789587765200,7.23476513671875,-0.09199714660644531,-0.0024323463439941406,-0.09246540069580078
1731409789597570600,7.244570556640625,-0.10531330108642578,0.06117582321166992,-0.028731107711791992
1731409789607375000,7.254375,-0.017917156219482422,0.00067138671875,0.01484370231628418
1731409789617180400,7.264180419921875,0.1107478141784668,-0.056382179260253906,-0.015586614608764648
1731409789626986500,7.273986572265625,0.1557016372680664,-0.05095052719116211,-0.031853675842285156
1731409789636791800,7.283791748046875,0.07783699035644531,-0.03130626678466797,0.03678297996520996
1731409789646596400,7.293596435546875,-0.030469417572021484,-0.03382682800292969,0.022115468978881836
1731409789656401700,7.303401611328125,-0.12258768081665039,-0.04448747634887695,-0.0388028621673584
1731409789666207700,7.313207763671875,-0.15384387969970703,-0.03242778778076172,-0.05814981460571289
1731409789676013000,7.323012939453125,-0.07232189178466797,-0.009163856506347656,-0.0745534896850586
1731409789685817600,7.332817626953125,0.032079219818115234,0.025825023651123047,-0.0956566333770752
1731409789695623000,7.342622802734375,0.08918476104736328,0.06805896759033203,-0.0368962287902832
1731409789705429000,7.352428955078125,0.19701051712036133,0.09868526458740234,0.003140687942504883
1731409789715234600,7.362234619140625,0.25823259353637695,0.0805368423461914,0.027678489685058594
1731409789725038800,7.372038818359375,0.20412874221801758,0.07042884826660156,-0.007106781005859375
1731409789734844400,7.381844482421875,0.07785892486572266,0.055941104888916016,-0.059706687927246094
1731409789744650500,7.391650390625,0.009842395782470703,0.02525949478149414,-0.07085132598876953
1731409789754455800,7.401455810546875,0.02055978775024414,0.027916431427001953,-0.06547689437866211
1731409789764260000,7.411260009765625,0.038161277770996094,0.053894996643066406,-0.029937028884887695
1731409789774065700,7.421065673828125,0.02931070327758789,0.046234130859375,-0.023385286331176758
1731409789783871700,7.430871826171875,0.017508983612060547,0.05238485336303711,-0.014469385147094727
1731409789793677000,7.440677001953125,0.028964519500732422,0.05315399169921875,-0.0532832145690918
1731409789803481600,7.450481689453125,0.06861209869384766,0.03484296798706055,-0.09444761276245117
1731409789813287000,7.460286865234375,0.07054424285888672,0.010112285614013672,-0.09269881248474121
1731409789823093000,7.470093017578125,0.09428930282592773,0.012216567993164062,-0.08374166488647461
1731409789832898300,7.479898193359375,0.08738374710083008,-0.011242866516113281,-0.060546159744262695
1731409789842702800,7.489702880859375,0.08560800552368164,-0.0056362152099609375,-0.02081918716430664
1731409789852508200,7.499508056640625,0.09580707550048828,-0.018532276153564453,0.004735231399536133
1731409789862314200,7.509314208984375,0.09654998779296875,-0.012129783630371094,0.06314325332641602
1731409789872119600,7.51911962890625,0.07373809814453125,-0.03866100311279297,0.08552837371826172
1731409789881924000,7.528924072265625,0.06996393203735352,-0.0389714241027832,0.07458114624023438
1731409789891729400,7.5387294921875,0.0778050422668457,-0.05117940902709961,0.049719810485839844
1731409789901535500,7.548535400390625,0.06868648529052734,-0.06821393966674805,-0.021985769271850586
1731409789911340800,7.5583408203125,0.0424957275390625,-0.0665130615234375,-0.045175790786743164
1731409789921145300,7.568145263671875,-0.0029668807983398438,-0.05106782913208008,-0.043967485427856445
1731409789930950700,7.57795068359375,-0.010310649871826172,-0.033745765686035156,-0.028682708740234375
1731409789940756700,7.5877568359375,-0.01478433609008789,-0.03550100326538086,-0.014090776443481445
1731409789950562000,7.59756201171875,0.031129837036132812,0.005397796630859375,0.016062498092651367
1731409789960366600,7.60736669921875,0.050994873046875,0.0010614395141601562,0.02876424789428711
1731409789970172000,7.617171875,0.018385887145996094,-0.015089988708496094,0.041489601135253906
1731409789979978000,7.62697802734375,-0.016820430755615234,-0.002972126007080078,0.016892671585083008
1731409789989783300,7.636783203125,-0.00017261505126953125,0.010947704315185547,-0.014353513717651367
1731409789999587800,7.646587890625,0.023129940032958984,0.02678394317626953,-0.03354191780090332
1731409790009393200,7.65639306640625,0.04421424865722656,0.04261970520019531,-0.019629240036010742
1731409790019199200,7.66619921875,0.018519878387451172,0.05395221710205078,0.010586023330688477
1731409790029004500,7.676004638671875,-0.018080711364746094,0.022940635681152344,0.0377964973449707
1731409790038809000,7.68580908203125,-0.02782583236694336,0.004524707794189453,0.015259027481079102
1731409790048614400,7.695614501953125,-0.03732109069824219,0.01920032501220703,0.018526792526245117
1731409790058420700,7.705420654296875,-0.0542454719543457,0.026173114776611328,0.009881734848022461
1731409790068226000,7.71522607421875,0.02946949005126953,-0.029001712799072266,-0.015566110610961914
1731409790078030300,7.7250302734375,0.1514606475830078,-0.0883021354675293,-0.0690453052520752
1731409790087836000,7.7348359375,0.14211320877075195,-0.0735015869140625,-0.058039188385009766
1731409790097642000,7.74464208984375,0.03177785873413086,-0.030375003814697266,0.06631278991699219
1731409790107447300,7.754447265625,-0.07257747650146484,0.01913738250732422,0.1870863437652588
1731409790117251600,7.76425146484375,-0.14371919631958008,-0.04120349884033203,0.1768934726715088
1731409790127057200,7.77405712890625,-0.09252262115478516,-0.11066102981567383,0.0988929271697998
1731409790136863200,7.78386328125,-0.002418994903564453,-0.08012771606445312,-0.029335737228393555
1731409790146668500,7.79366845703125,0.006096363067626953,-0.0477604866027832,-0.12008333206176758
1731409790156473000,7.80347314453125,-0.016004562377929688,0.002872467041015625,-0.13186430931091309
1731409790166278400,7.8132783203125,0.03594017028808594,0.04817342758178711,-0.08038616180419922
1731409790176084500,7.82308447265625,0.11213254928588867,0.06527376174926758,0.0003368854522705078
1731409790185889800,7.832889892578125,0.11577796936035156,0.03594160079956055,-0.007802486419677734
1731409790195694300,7.8426943359375,0.03561592102050781,0.012362957000732422,-0.044292449951171875
1731409790205499600,7.852499755859375,-0.03828287124633789,-0.048198699951171875,-0.03986215591430664
1731409790215305700,7.8623056640625,-0.07385063171386719,-0.07733631134033203,-0.03041672706604004
1731409790225111000,7.872111083984375,-0.048621177673339844,-0.080474853515625,-0.02996063232421875
1731409790234915600,7.88191552734375,-0.04613447189331055,-0.05333900451660156,-0.021688461303710938
1731409790244721000,7.891720947265625,-0.04687309265136719,-0.00577545166015625,-0.01776409149169922
1731409790254527000,7.90152685546875,-0.026281356811523438,-0.0013217926025390625,-0.011610031127929688
1731409790264332300,7.911332275390625,0.009402751922607422,-0.005830287933349609,0.014925718307495117
1731409790274136800,7.92113671875,0.018031597137451172,-0.028219223022460938,0.040370941162109375
1731409790283942100,7.930942138671875,-0.0005555152893066406,-0.040232181549072266,0.02495598793029785
1731409790293748200,7.940748291015625,-0.0497431755065918,-0.06415367126464844,-0.02813410758972168
1731409790303553500,7.950553466796875,-0.11132287979125977,-0.0838766098022461,-0.0684514045715332
1731409790313358000,7.960358154296875,-0.14332294464111328,-0.08330106735229492,-0.06303977966308594
1731409790323163400,7.970163330078125,-0.19846487045288086,-0.07715415954589844,-0.05262184143066406
1731409790332969500,7.979969482421875,-0.24571657180786133,-0.07010412216186523,-0.01118159294128418
1731409790342774800,7.98977490234375,-0.23485565185546875,-0.03805112838745117,0.013589859008789062
1731409790352579300,7.999579345703125,-0.17282390594482422,-0.006646633148193359,0.04300808906555176
1731409790362384600,8.009384521484375,-0.0708470344543457,0.008402824401855469,0.03426408767700195
1731409790372190700,8.019190673828126,0.012517452239990234,-0.0016379356384277344,-0.0054094791412353516
1731409790381996000,8.02899609375,0.0829019546508789,-0.0007605552673339844,-0.026322364807128906
1731409790391800600,8.038800537109376,0.08873224258422852,0.008306026458740234,-0.05270719528198242
1731409790401606000,8.04860595703125,0.05383920669555664,0.006255626678466797,-0.06290435791015625
1731409790411412000,8.058411865234374,0.006189823150634766,-0.004797458648681641,-0.030849218368530273
1731409790421217300,8.06821728515625,-0.014769554138183594,-0.015621185302734375,-0.008657693862915039
1731409790431021800,8.078021728515624,-0.03572988510131836,0.013625621795654297,0.043973684310913086
1731409790440827100,8.0878271484375,-0.04736137390136719,0.01390218734741211,0.04169893264770508
1731409790450633200,8.09763330078125,-0.06634235382080078,0.016178607940673828,0.048821210861206055
1731409790460438500,8.1074384765625,-0.07580804824829102,0.027790069580078125,0.0230715274810791
1731409790470243000,8.1172431640625,-0.06392908096313477,0.03458690643310547,-0.011490345001220703
1731409790480048400,8.12704833984375,-0.021207332611083984,0.027278900146484375,-0.024611949920654297
1731409790489854700,8.136854736328125,0.016880035400390625,-0.005407810211181641,-0.03307294845581055
1731409790499660000,8.146659912109374,0.026955604553222656,-0.015759944915771484,-0.013115644454956055
1731409790509464300,8.15646435546875,-0.052378177642822266,-0.004515647888183594,0.011393308639526367
1731409790519270000,8.166269775390624,-0.09808540344238281,-0.005420207977294922,0.038346052169799805
1731409790529076000,8.176075927734376,-0.030948162078857422,-0.0612187385559082,0.03159952163696289
1731409790538881300,8.18588134765625,0.08184671401977539,-0.10953617095947266,-0.01096200942993164
1731409790548685600,8.195685546875,0.03986930847167969,-0.09095239639282227,-0.02909541130065918
1731409790558491100,8.2054912109375,-0.048532962799072266,-0.0513148307800293,0.031174659729003906
1731409790568297200,8.215297119140626,-0.11261796951293945,-0.021918773651123047,0.10047316551208496
1731409790578102500,8.2251025390625,-0.1559295654296875,-0.05264997482299805,0.09372377395629883
1731409790587906800,8.23490673828125,-0.11943531036376953,-0.10928106307983398,0.03556180000305176
1731409790597712400,8.24471240234375,-0.07683467864990234,-0.09223604202270508,-0.042844295501708984
1731409790607518500,8.2545185546875,-0.0987238883972168,-0.05921173095703125,-0.11066937446594238
1731409790617323800,8.26432373046875,-0.10660266876220703,-0.029399871826171875,-0.12553787231445312
1731409790627128000,8.274128173828124,-0.029207229614257812,0.016556262969970703,-0.06974101066589355
1731409790636933600,8.28393359375,0.08120536804199219,0.026992321014404297,-0.003814220428466797
1731409790646739700,8.29373974609375,0.12307453155517578,0.007488250732421875,0.018192291259765625
1731409790656545000,8.303544921875,0.05665111541748047,0.005374908447265625,0.03770947456359863
1731409790666349300,8.313349365234375,-0.015813350677490234,-0.005828857421875,0.034063100814819336
1731409790676155000,8.32315478515625,-0.04765796661376953,-0.014684200286865234,0.012084722518920898
1731409790685961000,8.3329609375,-0.0440068244934082,-0.0283203125,-0.0047876834869384766
1731409790695766300,8.342766357421874,-0.04992246627807617,-0.027678966522216797,-0.028472423553466797
1731409790705570600,8.352570556640625,-0.027404308319091797,-0.005936145782470703,-0.05438375473022461
1731409790715376000,8.362376220703124,-0.040618896484375,-0.027048587799072266,-0.06826925277709961
1731409790725182200,8.37218212890625,-0.03438854217529297,-0.045278072357177734,-0.04678821563720703
1731409790734987500,8.381987548828125,-0.016141414642333984,-0.011130332946777344,0.009735345840454102
1731409790744791800,8.391791748046876,-0.005172252655029297,-0.019621849060058594,0.05168962478637695
1731409790754597400,8.401597412109375,-0.004063129425048828,-0.03273773193359375,0.06963896751403809
1731409790764403500,8.411403564453124,0.0013456344604492188,-0.026833534240722656,0.09482240676879883
1731409790774208800,8.421208740234375,-0.005455970764160156,-0.03764152526855469,0.04210305213928223
1731409790784013000,8.431012939453124,-0.04100322723388672,-0.046195030212402344,-0.018886804580688477
1731409790793818600,8.440818603515625,-0.06488275527954102,-0.043087005615234375,-0.04781317710876465
1731409790803624700,8.450624755859375,-0.04398345947265625,-0.04504728317260742,-0.057567596435546875
1731409790813430000,8.460429931640626,0.0026373863220214844,-0.04935646057128906,-0.0297849178314209
1731409790823234300,8.470234375,0.01578521728515625,-0.02981424331665039,0.014131784439086914
1731409790833040000,8.480039794921876,0.019340991973876953,0.008396625518798828,0.05051851272583008
1731409790842846000,8.489845947265625,0.03456544876098633,0.022531986236572266,0.03947925567626953
1731409790852651300,8.4996513671875,0.025994300842285156,0.02467632293701172,0.031008243560791016
1731409790862455800,8.509455810546875,0.03879833221435547,0.005888938903808594,0.01614212989807129
1731409790872261000,8.51926123046875,0.049121856689453125,0.0017442703247070312,-0.0028924942016601562
1731409790882067200,8.529067138671875,0.05002927780151367,-0.0044956207275390625,-0.01675868034362793
1731409790891872500,8.53887255859375,0.044119834899902344,-0.01278066635131836,-0.009150028228759766
1731409790901677000,8.548677001953125,0.010013580322265625,-0.016262531280517578,0.0006568431854248047
1731409790911482400,8.558482421875,-0.02862548828125,-0.0034117698669433594,-0.006058216094970703
1731409790921288400,8.568288330078126,-0.05559110641479492,0.0111541748046875,-0.01957249641418457
1731409790931093800,8.57809375,-0.052158355712890625,0.036952972412109375,-0.01373434066772461
1731409790940898000,8.58789794921875,-0.015911579132080078,0.055098533630371094,-0.03174114227294922
1731409790950703600,8.59770361328125,0.022562503814697266,0.025976181030273438,-0.04986095428466797
1731409790960509700,8.607509765625,0.030487537384033203,0.02116107940673828,-0.04216718673706055
1731409790970315000,8.61731494140625,-0.0319972038269043,0.03334474563598633,-0.06009387969970703
1731409790980119300,8.627119384765624,-0.07735490798950195,0.05450630187988281,-0.08472514152526855
1731409790989924900,8.6369248046875,-0.033370018005371094,0.015740394592285156,-0.09743618965148926
1731409790999731000,8.64673095703125,0.09415149688720703,-0.03469371795654297,-0.0891869068145752
1731409791009536300,8.656536376953126,0.1470046043395996,-0.03452444076538086,-0.08808183670043945
1731409791019340500,8.666340576171875,0.06783866882324219,0.02741098403930664,-0.006779193878173828
1731409791029146000,8.67614599609375,-0.019381999969482422,0.06500673294067383,0.07828426361083984
1731409791038952200,8.6859521484375,-0.06578207015991211,0.023906707763671875,0.0725862979888916
1731409791048757500,8.695757568359374,-0.031844139099121094,-0.010003089904785156,0.0076596736907958984
1731409791058561800,8.705561767578125,-0.0011758804321289062,-0.02233600616455078,-0.06783890724182129
1731409791068367400,8.715367431640624,-0.05625438690185547,0.010062694549560547,-0.16303110122680664
1731409791078173400,8.72517333984375,-0.04698610305786133,0.060535430908203125,-0.18391799926757812
1731409791087978800,8.734978759765625,0.021683692932128906,0.1126251220703125,-0.13926982879638672
1731409791097783000,8.744782958984375,0.11437463760375977,0.12676525115966797,-0.039861202239990234
1731409791107588600,8.754588623046875,0.16533899307250977,0.09705448150634766,0.0430605411529541
1731409791117394700,8.764394775390626,0.1109623908996582,0.08528661727905273,0.04220080375671387
1731409791127200000,8.774199951171875,0.01764392852783203,0.04562568664550781,-0.012703895568847656
1731409791137004300,8.78400439453125,-0.011477470397949219,0.022650718688964844,-0.04989266395568848
1731409791146809900,8.793809814453125,-0.005763053894042969,0.006519794464111328,-0.07695508003234863
1731409791156616000,8.803615966796874,0.013013362884521484,0.009007453918457031,-0.06322169303894043
1731409791166421200,8.813421142578125,-0.020711898803710938,0.05603647232055664,-0.018877029418945312
1731409791176225500,8.8232255859375,-0.013414859771728516,0.06008195877075195,-0.0037560462951660156
1731409791186031000,8.833031005859375,0.06561851501464844,0.0316004753112793,-0.003657817840576172
1731409791195837200,8.842837158203125,0.09983539581298828,0.013568401336669922,-0.013507604598999023
1731409791205642500,8.852642578125,0.08918952941894531,-0.010990619659423828,-0.037435054779052734
1731409791215446800,8.86244677734375,0.038041114807128906,-0.04480695724487305,-0.03704214096069336
1731409791225252400,8.87225244140625,0.002777099609375,-0.04587841033935547,-0.02450251579284668
1731409791235058400,8.882058349609375,0.002051830291748047,-0.03817605972290039,0.002454519271850586
1731409791244863700,8.89186376953125,-0.02561330795288086,0.011289596557617188,0.041174888610839844
1731409791254668000,8.90166796875,-0.020430564880371094,0.033902645111083984,0.051496267318725586
1731409791264473300,8.911473388671874,0.020198345184326172,0.04202842712402344,0.019006967544555664
1731409791274279700,8.92127978515625,0.039666175842285156,0.03617238998413086,-0.01567673683166504
1731409791284085000,8.9310849609375,0.024288177490234375,0.037858009338378906,-0.05007624626159668
1731409791293889300,8.94088916015625,0.02835369110107422,0.016032695770263672,-0.07012820243835449
1731409791303694800,8.95069482421875,-0.00335693359375,0.006211280822753906,-0.054270029067993164
1731409791313501000,8.9605009765625,-0.01654195785522461,-0.010801315307617188,-0.06404542922973633
1731409791323306200,8.97030615234375,0.0002155303955078125,-0.011521339416503906,-0.05458974838256836
1731409791333110500,8.980110595703126,-0.000052928924560546875,0.022995471954345703,0.011385202407836914
1731409791342916000,8.989916015625,0.025753498077392578,0.031203269958496094,0.048096656799316406
1731409791352722200,8.99972216796875,0.06386947631835938,0.03269529342651367,0.03914380073547363
1731409791362527500,9.009527587890625,0.0906381607055664,0.025141239166259766,0.017956018447875977
1731409791372331800,9.019331787109374,0.07524347305297852,-0.0031828880310058594,-0.022003889083862305
1731409791382137300,9.029137451171875,0.03198432922363281,-0.01913309097290039,-0.032959938049316406
1731409791391943400,9.038943359375,-0.003669261932373047,-0.02544546127319336,-0.015336751937866211
1731409791401748700,9.048748779296876,-0.01518869400024414,0.015444755554199219,0.01379251480102539
1731409791411553000,9.058552978515625,-0.02416229248046875,-0.003067493438720703,0.0403447151184082
1731409791421358300,9.0683583984375,-0.009135246276855469,-0.00463104248046875,0.05694913864135742
1731409791431164700,9.07816455078125,-0.005734920501708984,-0.01531982421875,0.04973483085632324
1731409791440970000,9.087969970703124,-0.03757333755493164,-0.020872116088867188,0.03589820861816406
1731409791450774300,9.097774169921875,-0.043643951416015625,0.003921985626220703,0.0271759033203125
1731409791460579600,9.10757958984375,0.045993804931640625,-0.024130821228027344,0.009123086929321289
1731409791470385700,9.1173857421875,0.16448354721069336,-0.07328510284423828,-0.03493237495422363
1731409791480191000,9.12719091796875,0.12849807739257812,-0.050763607025146484,-0.04081988334655762
1731409791489995500,9.13699560546875,-0.01740884780883789,0.009193897247314453,0.06650996208190918
1731409791499800800,9.14680078125,-0.1383047103881836,0.027458667755126953,0.11549186706542969
1731409791509607000,9.15660693359375,-0.1739659309387207,-0.035677433013916016,0.09532833099365234
1731409791519412200,9.166412109375,-0.15127897262573242,-0.0535426139831543,0.02414560317993164
1731409791529216800,9.176216796875,-0.07531166076660156,-0.047625064849853516,-0.07828521728515625
1731409791539022000,9.18602197265625,-0.05201101303100586,-0.03704261779785156,-0.14881229400634766
1731409791548828200,9.195828125,0.02130889892578125,0.011246204376220703,-0.10836243629455566
1731409791558633500,9.205633544921875,0.10916471481323242,0.06633138656616211,-0.06024789810180664
1731409791568438000,9.21543798828125,0.14530706405639648,0.09047555923461914,0.009734392166137695
1731409791578243300,9.225243408203125,0.07556724548339844,0.06050920486450195,-0.0014922618865966797
1731409791588049400,9.23504931640625,0.004189968109130859,0.0003352165222167969,-0.012154340744018555
1731409791597854700,9.244854736328126,-0.02171182632446289,-0.044768333435058594,-0.012756586074829102
1731409791607659300,9.2546591796875,0.021087169647216797,-0.07009410858154297,-0.0011990070343017578
1731409791617464600,9.264464599609376,0.05864143371582031,-0.04066038131713867,-0.02264714241027832
1731409791627270700,9.274270751953125,0.02987384796142578,-0.0022420883178710938,-0.06039142608642578
1731409791637076000,9.284075927734374,-0.005430698394775391,0.02828216552734375,-0.0908811092376709
1731409791646880500,9.293880615234375,-0.011807441711425781,0.048834800720214844,-0.06927371025085449
1731409791656685800,9.303685791015624,0.010481834411621094,0.05277204513549805,-0.005650758743286133
1731409791666492000,9.313491943359375,0.05437946319580078,0.029054641723632812,0.05246615409851074
1731409791676297200,9.323297119140625,0.07252836227416992,-0.02903890609741211,0.05067253112792969
1731409791686101800,9.333101806640625,0.06518173217773438,-0.0787653923034668,0.01333308219909668
1731409791695907000,9.342906982421875,0.04627513885498047,-0.09927845001220703,-0.016176223754882812
1731409791705713200,9.352713134765626,-0.005980491638183594,-0.0914011001586914,-0.028191804885864258
1731409791715518500,9.3625185546875,-0.04456043243408203,-0.08413505554199219,-0.027450084686279297
1731409791725323000,9.372322998046876,-0.05307960510253906,-0.08235692977905273,-0.0029168128967285156
1731409791735128300,9.38212841796875,-0.0028214454650878906,-0.05020904541015625,0.030509233474731445
1731409791744934400,9.391934326171874,0.028163433074951172,-0.025498390197753906,0.04904794692993164
1731409791754739700,9.40173974609375,0.03788471221923828,-0.029199600219726562,0.03423047065734863
1731409791764544300,9.411544189453124,0.03825044631958008,-0.03985738754272461,0.01003885269165039
1731409791774349600,9.421349609375,0.043584346771240234,-0.05494356155395508,-0.028021574020385742
1731409791784155600,9.43115576171875,0.027817249298095703,-0.06265640258789062,-0.02789759635925293
1731409791793961000,9.4409609375,0.012267112731933594,-0.06547403335571289,-0.027601003646850586
1731409791803765500,9.450765625,0.00865793228149414,-0.0659799575805664,-0.015596389770507812
1731409791813570800,9.46057080078125,0.016571521759033203,-0.02901601791381836,0.0009167194366455078
1731409791823377000,9.470376953125,0.017029762268066406,0.0024924278259277344,0.01488804817199707
1731409791833182000,9.480181884765624,0.03156423568725586,0.0003113746643066406,0.016505718231201172
1731409791842986500,9.489986572265625,0.010284423828125,0.004995822906494141,0.006208181381225586
1731409791852792000,9.4997919921875,-0.00845956802368164,-0.026019573211669922,-0.03254556655883789
1731409791862598100,9.50959814453125,-0.03905534744262695,-0.04271554946899414,-0.03310275077819824
1731409791872403500,9.519403564453125,-0.039107322692871094,-0.05008411407470703,-0.0312652587890625
1731409791882207700,9.529207763671875,-0.037423133850097656,-0.04572010040283203,-0.005419492721557617
1731409791892013000,9.539012939453125,-0.03407621383666992,-0.025257587432861328,0.0226132869720459
1731409791901819400,9.5488193359375,-0.03358030319213867,0.011271476745605469,0.015303373336791992
1731409791911624400,9.55862451171875,-0.05001020431518555,0.06108427047729492,0.043544769287109375
1731409791921429000,9.568428955078126,0.034720420837402344,0.04844951629638672,-0.004369258880615234
1731409791931234300,9.578234375,0.20353984832763672,-0.017989158630371094,-0.09694266319274902
1731409791941040400,9.588040283203124,0.19472980499267578,-0.023385047912597656,-0.09633421897888184
1731409791950845700,9.597845703125,0.07001829147338867,0.031198501586914062,0.0006415843963623047
1731409791960650200,9.607650146484374,-0.045201778411865234,0.06403636932373047,0.07740020751953125
1731409791970455600,9.61745556640625,-0.11037540435791016,0.015439033508300781,0.07524871826171875
1731409791980261600,9.62726171875,-0.10559368133544922,-0.0168609619140625,0.02875232696533203
1731409791990067000,9.63706689453125,-0.03607511520385742,-0.018589496612548828,-0.02135753631591797
1731409791999871500,9.64687158203125,0.0016326904296875,0.005501270294189453,-0.07784080505371094
1731409792009676800,9.6566767578125,0.011031627655029297,0.04581499099731445,-0.060868263244628906
1731409792019483000,9.66648291015625,0.08275890350341797,0.06482172012329102,-0.023572444915771484
1731409792029288200,9.6762880859375,0.15282821655273438,0.06325817108154297,0.0006918907165527344
1731409792039092700,9.6860927734375,0.1481490135192871,0.058017730712890625,-0.013433456420898438
1731409792048898000,9.69589794921875,0.09476423263549805,0.03449583053588867,-0.03432822227478027
1731409792058704100,9.7057041015625,0.025345325469970703,0.023093223571777344,-0.019068479537963867
1731409792068509400,9.715509521484375,-0.010487556457519531,0.021092891693115234,0.02447676658630371
1731409792078314000,9.72531396484375,-0.0061855316162109375,0.016495227813720703,0.03442502021789551
1731409792088119300,9.735119384765625,0.005109310150146484,0.02604198455810547,0.025257110595703125
1731409792097925400,9.74492529296875,-0.017048358917236328,0.04470252990722656,-0.03543424606323242
1731409792107730700,9.754730712890625,-0.017911911010742188,0.029874801635742188,-0.0857846736907959
1731409792117535200,9.76453515625,-0.01156473159790039,-0.036586761474609375,-0.0885615348815918
1731409792127340500,9.774340576171875,-0.0027942657470703125,-0.02890157699584961,-0.07963776588439941
1731409792137146600,9.784146728515625,-0.010781288146972656,-0.033026695251464844,-0.03990960121154785
1731409792146952000,9.793951904296875,-0.02626943588256836,-0.020880699157714844,0.008777379989624023
1731409792156756200,9.803756103515624,-0.034700870513916016,-0.0020356178283691406,0.06374502182006836
1731409792166561800,9.813561767578125,-0.04085540771484375,-0.004763603210449219,0.05908703804016113
1731409792176367900,9.823367919921875,-0.044994354248046875,-0.009829044342041016,0.06209397315979004
1731409792186173200,9.833173095703126,-0.06362771987915039,-0.01967906951904297,0.020583391189575195
1731409792195977500,9.8429775390625,-0.051346778869628906,-0.045888423919677734,-0.008551359176635742
1731409792205782800,9.85278271484375,-0.0412297248840332,-0.03857088088989258,-0.030400514602661133
1731409792215588900,9.8625888671875,-0.01209878921508789,-0.04282522201538086,-0.030523061752319336
1731409792225394200,9.872394287109374,-0.009482383728027344,-0.02327585220336914,-0.015964508056640625
1731409792235198700,9.88219873046875,-0.0022912025451660156,0.010322093963623047,0.020151853561401367
1731409792245004000,9.892004150390624,0.019167423248291016,0.024790287017822266,0.032299041748046875
1731409792254810400,9.901810302734376,0.0033025741577148438,0.0039958953857421875,0.03212261199951172
1731409792264615700,9.91161572265625,0.011812686920166016,0.002673625946044922,0.04354500770568848
1731409792274420000,9.921419921875,-0.024549484252929688,0.0038313865661621094,0.03850245475769043
1731409792284225300,9.931225341796875,-0.03040170669555664,-0.016524314880371094,-0.0014486312866210938
1731409792294031400,9.94103125,-0.024735450744628906,-0.02504730224609375,-0.050237178802490234
1731409792303836700,9.950836669921875,-0.01227569580078125,-0.04775857925415039,-0.048949241638183594
1731409792313641200,9.96064111328125,-0.011969566345214844,-0.04195833206176758,-0.03826618194580078
1731409792323446500,9.970446533203125,-0.009619712829589844,-0.027057170867919922,-0.025435447692871094
1731409792333252600,9.980252685546875,-0.012413501739501953,0.006342411041259766,0.027552366256713867
1731409792343058000,9.990057861328125,0.006422519683837891,0.03469705581665039,0.0654444694519043
1731409792352862500,9.999862548828125,0.023422718048095703,0.022995948791503906,0.07186532020568848
1731409792362667800,10.009667724609375,-0.056165218353271484,0.02593708038330078,0.0573420524597168
1731409792372473900,10.019473876953125,-0.1472949981689453,0.047387123107910156,0.018068790435791016
1731409792382279200,10.029279052734376,-0.0663599967956543,0.011380672454833984,0.020025253295898438
1731409792392083700,10.039083740234375,0.1328582763671875,-0.06932497024536133,-0.06806540489196777
1731409792401889000,10.048888916015626,0.20486068725585938,-0.09427690505981445,-0.1082465648651123
1731409792411695000,10.058695068359375,0.09068632125854492,-0.04754304885864258,-0.02775287628173828
1731409792421500400,10.06850048828125,-0.02651500701904297,-0.010886192321777344,0.06604814529418945
1731409792431304700,10.0783046875,-0.11473321914672852,-0.0038628578186035156,0.09245562553405762
1731409792441110300,10.0881103515625,-0.09161663055419922,-0.016387939453125,0.07119297981262207
1731409792450916400,10.097916259765626,-0.02668476104736328,-0.052229881286621094,0.00581669807434082
1731409792460721400,10.107721435546875,0.027832984924316406,-0.07312870025634766,-0.034607648849487305
1731409792470526000,10.11752587890625,0.05785655975341797,-0.05369997024536133,-0.05790853500366211
1731409792480331300,10.127331298828125,0.05904388427734375,-0.004164695739746094,-0.036324262619018555
1731409792490137600,10.1371376953125,0.04848766326904297,0.0138702392578125,0.005883932113647461
1731409792499943000,10.14694287109375,0.024376392364501953,0.050627708435058594,0.03547239303588867
1731409792509747200,10.156747314453124,0.017539024353027344,0.0610651969909668,0.0479433536529541
1731409792519552500,10.166552490234375,0.008638858795166016,0.059514522552490234,0.02457427978515625
1731409792529358600,10.176358642578125,0.014187812805175781,0.0417027473449707,-0.0006129741668701172
1731409792539164000,10.186163818359375,0.04083442687988281,0.012269973754882812,-0.02331686019897461
1731409792548968400,10.195968505859375,0.041052818298339844,-0.0026497840881347656,-0.043375253677368164
1731409792558773800,10.205773681640625,0.017374515533447266,-0.01265096664428711,-0.053304195404052734
1731409792568579800,10.215579833984375,0.026611328125,-0.0038843154907226562,-0.06765961647033691
1731409792578385200,10.22538525390625,0.042758941650390625,-0.007134437561035156,-0.0607907772064209
1731409792588189700,10.235189697265625,0.07297945022583008,0.046300411224365234,-0.03287768363952637
1731409792597995000,10.2449951171875,0.06742382049560547,0.04943418502807617,0.013402462005615234
1731409792607801000,10.254801025390625,0.04779052734375,0.04549980163574219,0.0637664794921875
1731409792617606400,10.2646064453125,0.031060218811035156,0.041733741760253906,0.05670428276062012
1731409792627410700,10.27441064453125,0.022023677825927734,0.019357681274414062,0.04019927978515625
1731409792637216300,10.28421630859375,0.008473873138427734,-0.00957345962524414,0.005341053009033203
1731409792647022300,10.294022216796876,0.0044345855712890625,-0.021733760833740234,-0.03620338439941406
1731409792656827600,10.30382763671875,0.01227712631225586,-0.026749610900878906,-0.0279085636138916
1731409792666632000,10.3136318359375,0.005726814270019531,-0.03411149978637695,0.006169557571411133
1731409792676437500,10.3234375,-0.013016700744628906,0.012502670288085938,0.05156350135803223
1731409792686243600,10.33324365234375,-0.03424406051635742,0.03910970687866211,0.0630350112915039
1731409792696049000,10.343048828125,-0.022202491760253906,0.06739234924316406,0.04565691947937012
1731409792705853200,10.352853271484374,-0.05046892166137695,0.07363271713256836,0.004385948181152344
1731409792715658500,10.362658447265625,-0.05019092559814453,0.03714609146118164,-0.04352235794067383
1731409792725464600,10.372464599609375,-0.054757118225097656,-0.00360107421875,-0.06252837181091309
1731409792735270000,10.382269775390625,-0.05209779739379883,-0.04121112823486328,-0.059942007064819336
1731409792745074400,10.392074462890625,-0.060948848724365234,-0.0566868782043457,-0.04304075241088867
1731409792754879700,10.401879638671875,-0.0811610221862793,-0.05760622024536133,-0.031130313873291016
1731409792764685800,10.411685791015625,-0.09406185150146484,-0.04213237762451172,-0.05011129379272461
1731409792774491100,10.4214912109375,-0.10239219665527344,-0.03405046463012695,-0.0566864013671875
1731409792784295700,10.431295654296875,-0.06851911544799805,-0.0025849342346191406,-0.07222270965576172
1731409792794101000,10.44110107421875,-0.030368804931640625,-0.011530399322509766,-0.05680418014526367
1731409792803907000,10.450906982421875,0.002834796905517578,-0.03171539306640625,-0.03198671340942383
1731409792813712400,10.46071240234375,0.014560699462890625,-0.039261817932128906,-0.06102752685546875
1731409792823517000,10.470516845703125,-0.06412172317504883,-0.023099899291992188,-0.06500029563903809
1731409792833322200,10.480322265625,-0.09293842315673828,0.009321212768554688,-0.02530980110168457
1731409792843128300,10.49012841796875,-0.05339813232421875,0.04321479797363281,-0.014702796936035156
1731409792852933600,10.49993359375,0.08725357055664062,-0.0012903213500976562,-0.033499956130981445
1731409792862738000,10.509738037109376,0.14672088623046875,-0.06364297866821289,-0.057752132415771484
1731409792872543500,10.51954345703125,0.1264810562133789,-0.048868656158447266,-0.03002643585205078
1731409792882349600,10.529349609375,0.017647266387939453,0.01322174072265625,0.021042823791503906
1731409792892155000,10.53915478515625,-0.09714651107788086,0.04584503173828125,0.015305519104003906
1731409792901959200,10.548959228515624,-0.10022115707397461,0.032763004302978516,0.016950130462646484
1731409792911764500,10.558764404296875,-0.06846094131469727,0.007752895355224609,0.00908970832824707
1731409792921570600,10.568570556640625,-0.03692293167114258,-0.038034915924072266,-0.022589683532714844
1731409792931375900,10.5783759765625,0.03748464584350586,-0.007449150085449219,-0.0450747013092041
1731409792941180400,10.588180419921875,0.055301666259765625,0.022961139678955078,-0.06328368186950684
1731409792950985700,10.59798583984375,0.0570521354675293,0.02236461639404297,-0.04186058044433594
1731409792960791800,10.607791748046875,0.052197933197021484,0.022050857543945312,-0.009105920791625977
1731409792970597000,10.61759716796875,0.01947784423828125,0.0337986946105957,0.046814918518066406
1731409792980401700,10.627401611328125,-0.003109455108642578,0.029053688049316406,0.08075618743896484
1731409792990207000,10.63720703125,-0.020704269409179688,0.03617048263549805,0.07425045967102051
1731409793000013000,10.647012939453125,-0.02689981460571289,0.031067371368408203,0.0539243221282959
1731409793009818400,10.656818359375,-0.010068893432617188,0.03269195556640625,0.015068292617797852
1731409793019623000,10.666622802734375,-0.008129119873046875,0.026852130889892578,-0.0373845100402832
1731409793029428200,10.67642822265625,-0.03953266143798828,0.004266262054443359,-0.053913116455078125
1731409793039234300,10.686234375,-0.0516200065612793,-0.01810169219970703,-0.037467002868652344
1731409793049039400,10.696039306640625,-0.05657386779785156,-0.03545665740966797,-0.00007605552673339844
1731409793058844000,10.705843994140626,-0.1093292236328125,-0.026821613311767578,-0.005051612854003906
1731409793068649200,10.715649169921875,-0.11784744262695312,-0.030952930450439453,-0.04989314079284668
1731409793078455300,10.725455322265624,-0.08735418319702148,-0.04056262969970703,-0.054151296615600586
1731409793088260600,10.735260498046875,-0.03884553909301758,-0.031392574310302734,-0.03247380256652832
1731409793098065200,10.745065185546874,-0.021574974060058594,-0.03860282897949219,-0.022666215896606445
1731409793107870500,10.754870361328125,-0.011390209197998047,-0.03358173370361328,-0.0291745662689209
1731409793117676500,10.764676513671875,0.0014214515686035156,-0.037663936614990234,0.01643061637878418
1731409793127481900,10.77448193359375,0.01912689208984375,-0.07903766632080078,0.03547358512878418
1731409793137286400,10.784286376953125,0.05581474304199219,-0.06291484832763672,0.016569852828979492
1731409793147091700,10.794091796875,0.03783464431762695,-0.061183929443359375,-0.03038167953491211
1731409793156897800,10.803897705078125,0.008028030395507812,-0.038462162017822266,-0.059958696365356445
1731409793166703000,10.813703125,-0.012087821960449219,0.007412910461425781,-0.03699183464050293
1731409793176507600,10.823507568359375,0.02036762237548828,0.015162944793701172,-0.04497361183166504
1731409793186313000,10.83331298828125,0.04615449905395508,-0.033342838287353516,-0.03914213180541992
1731409793196119000,10.843119140625,0.04894733428955078,-0.05225849151611328,-0.04065680503845215
1731409793205924400,10.85292431640625,0.030769824981689453,-0.06112480163574219,-0.06068992614746094
1731409793215728600,10.862728759765625,0.000720977783203125,-0.03698539733886719,-0.05418586730957031
1731409793225534200,10.8725341796875,-0.012972831726074219,0.02642345428466797,-0.03592061996459961
1731409793235340300,10.88234033203125,0.02037668228149414,0.10270929336547852,-0.015643835067749023
1731409793245145600,10.8921455078125,0.0063457489013671875,0.15206623077392578,0.027974367141723633
1731409793254950000,10.901949951171876,0.014307975769042969,0.20339393615722656,0.059240102767944336
1731409793264755200,10.911755126953125,0.0018801689147949219,0.18859148025512695,0.0359339714050293
1731409793274561300,10.921561279296874,0.04287910461425781,0.1275486946105957,0.028884172439575195
1731409793284366600,10.93136669921875,0.06387710571289062,0.07292032241821289,-0.03318476676940918
1731409793294171100,10.941171142578124,0.036421775817871094,0.036244869232177734,-0.07594943046569824
1731409793303976400,10.9509765625,-0.032912254333496094,0.028511524200439453,-0.0708150863647461
1731409793313782500,10.960782470703125,-0.06467819213867188,0.05820274353027344,-0.03196978569030762
1731409793323587800,10.970587890625,0.015390872955322266,0.03001880645751953,-0.02162337303161621
1731409793333392400,10.980392333984375,0.1617751121520996,-0.017082691192626953,0.028267383575439453
1731409793343197700,10.99019775390625,0.2380228042602539,-0.020820140838623047,0.05346369743347168
1731409793353003800,11.000003662109375,0.1183929443359375,0.03252410888671875,0.10651516914367676
1731409793362809000,11.00980908203125,-0.030292510986328125,0.03768110275268555,0.12115311622619629
1731409793372613400,11.01961328125,-0.08357000350952148,-0.02638864517211914,0.05535268783569336
1731409793382419000,11.0294189453125,-0.04498481750488281,-0.07350969314575195,-0.037721872329711914
1731409793392225000,11.03922509765625,-0.012330055236816406,-0.10372734069824219,-0.11745572090148926
1731409793402030300,11.0490302734375,-0.07248497009277344,-0.06308650970458984,-0.12990832328796387
1731409793411834600,11.058834716796875,-0.03267812728881836,-0.008862018585205078,-0.09255266189575195
1731409793421640000,11.068639892578124,0.0712275505065918,0.040167808532714844,-0.009421110153198242
1731409793431446000,11.078446044921876,0.1851797103881836,0.04215574264526367,0.028675079345703125
1731409793441251300,11.088251220703125,0.20333385467529297,0.033548831939697266,0.053444623947143555
1731409793451055900,11.098055908203126,0.12612581253051758,0.028389453887939453,0.030737638473510742
1731409793460861200,11.107861083984375,0.0577082633972168,0.019018173217773438,-0.012539863586425781
1731409793470667300,11.117667236328124,-0.007620811462402344,0.012150287628173828,-0.05932211875915527
1731409793480472600,11.12747265625,-0.08670616149902344,0.01236104965209961,-0.03634786605834961
1731409793490277000,11.137277099609374,-0.0873250961303711,0.0361485481262207,-0.005949974060058594
1731409793500082400,11.14708251953125,-0.10410737991333008,0.04329347610473633,-0.01837778091430664
1731409793509888500,11.156888427734375,-0.05367136001586914,0.06940937042236328,-0.02198314666748047
1731409793519693800,11.16669384765625,-0.0030961036682128906,0.060011863708496094,-0.01926565170288086
1731409793529498000,11.176498046875,0.016562938690185547,0.03450202941894531,-0.02864670753479004
1731409793539303700,11.1863037109375,0.002403736114501953,-0.016712665557861328,-0.05415081977844238
1731409793549109800,11.19610986328125,-0.017426490783691406,-0.051105499267578125,-0.048111677169799805
1731409793558914800,11.205914794921876,-0.01706695556640625,-0.05952024459838867,-0.03438925743103027
1731409793568719400,11.21571923828125,0.013048648834228516,-0.07737493515014648,-0.006016969680786133
1731409793578524700,11.225524658203126,0.0066814422607421875,-0.09040689468383789,0.012955188751220703
1731409793588330800,11.235330810546875,0.018637657165527344,-0.07988786697387695,0.03434419631958008
1731409793598136000,11.245135986328124,0.015917301177978516,-0.0720067024230957,0.07444572448730469
1731409793607940600,11.254940673828125,0.012981414794921875,-0.07145929336547852,0.0550837516784668
1731409793617746000,11.264745849609374,0.012227535247802734,-0.04034090042114258,0.03863215446472168
1731409793627552000,11.274552001953126,-0.01720714569091797,-0.047580718994140625,0.020329952239990234
1731409793637357300,11.284357421875,-0.032470703125,-0.07360410690307617,0.012183189392089844
1731409793647161900,11.294161865234376,-0.04321718215942383,-0.07572078704833984,0.018729448318481445
1731409793656967200,11.30396728515625,-0.013811111450195312,-0.077789306640625,0.020544052124023438
1731409793666773200,11.313773193359374,-0.017943859100341797,-0.07280540466308594,0.02471017837524414
1731409793676578300,11.323578369140625,0.010686874389648438,-0.039872169494628906,0.026364803314208984
1731409793686382800,11.3333828125,0.03653287887573242,-0.009853839874267578,0.004364013671875
1731409793696188200,11.343188232421875,0.045558929443359375,0.0009198188781738281,0.001622915267944336
1731409793705994200,11.352994140625,0.02640533447265625,-0.004861354827880859,-0.005866050720214844
1731409793715799600,11.362799560546875,-0.011301994323730469,-0.03189420700073242,-0.018199443817138672
1731409793725604000,11.37260400390625,-0.048381805419921875,-0.07029247283935547,-0.006872415542602539
1731409793735409400,11.382409423828125,-0.07586908340454102,-0.0635385513305664,0.004408597946166992
1731409793745215500,11.392215576171875,-0.06345272064208984,-0.04078388214111328,0.0037567615509033203
1731409793755020800,11.402020751953126,-0.07553815841674805,-0.01887655258178711,0.0008156299591064453
1731409793764825300,11.411825439453125,-0.06436538696289062,0.035349369049072266,0.028613805770874023
1731409793774630700,11.421630615234376,-0.058087825775146484,0.04172229766845703,0.030314207077026367
1731409793784436700,11.431436767578125,-0.04419088363647461,0.03193330764770508,0.02254319190979004
1731409793794242000,11.441241943359374,-0.010799884796142578,0.010767936706542969,-0.00933218002319336
1731409793804046600,11.451046630859375,0.1337571144104004,-0.09706783294677734,-0.0819094181060791
1731409793813852000,11.460851806640624,0.18750858306884766,-0.1415843963623047,-0.11636114120483398
1731409793823658000,11.470657958984376,0.031134605407714844,-0.07444429397583008,-0.03474164009094238
1731409793833463300,11.48046337890625,-0.13791561126708984,-0.018230915069580078,0.08390450477600098
1731409793843267600,11.490267578125,-0.18148279190063477,-0.008881568908691406,0.14680075645446777
1731409793853073000,11.500072998046875,-0.09371662139892578,-0.05461740493774414,0.11924600601196289
1731409793862879000,11.50987890625,-0.02878093719482422,-0.038472652435302734,0.012162923812866211
1731409793872684300,11.519684326171875,-0.0423579216003418,-0.0035772323608398438,-0.10017037391662598
1731409793882488800,11.52948876953125,-0.040699005126953125,0.02850198745727539,-0.1715075969696045
1731409793892294100,11.539294189453125,0.05922889709472656,0.06520700454711914,-0.1512279510498047
1731409793902100200,11.549100341796875,0.1430072784423828,0.10657739639282227,-0.0856480598449707
1731409793911905500,11.558905517578125,0.13289880752563477,0.1315288543701172,-0.05952024459838867
1731409793921710000,11.5687099609375,0.07644271850585938,0.09995603561401367,-0.04086112976074219
1731409793931515400,11.578515380859375,0.018434524536132812,0.04547262191772461,-0.04568052291870117
1731409793941321500,11.588321533203125,0.008166313171386719,0.015326499938964844,-0.036122798919677734
1731409793951126800,11.598126708984376,0.02574634552001953,-0.009986400604248047,-0.045560359954833984
1731409793960931000,11.60793115234375,0.025761127471923828,-0.021245956420898438,-0.04065871238708496
1731409793970736600,11.617736572265626,-0.010511398315429688,-0.018448352813720703,-0.04921221733093262
1731409793980542500,11.62754248046875,-0.020771503448486328,-0.011208057403564453,-0.0809624195098877
1731409793990347800,11.63734765625,0.011562824249267578,-0.013382434844970703,-0.06021523475646973
1731409794000152300,11.64715234375,0.022789478302001953,-0.00089263916015625,-0.030221939086914062
1731409794009957600,11.65695751953125,0.04395580291748047,-0.009251117706298828,-0.031185626983642578
1731409794019763700,11.666763671875,0.04398012161254883,-0.04777860641479492,-0.041491031646728516
1731409794029569000,11.676569091796875,-0.022397994995117188,-0.062308311462402344,-0.032530784606933594
1731409794039373600,11.68637353515625,-0.058124542236328125,-0.07474994659423828,0.009615421295166016
1731409794049179000,11.696178955078125,-0.0804128646850586,-0.07092428207397461,0.023649930953979492
1731409794058985000,11.70598486328125,-0.08708429336547852,-0.08425378799438477,0.03314805030822754
1731409794068790300,11.715790283203125,-0.04229402542114258,-0.06937551498413086,0.051963090896606445
1731409794078594800,11.7255947265625,0.004191398620605469,-0.0216827392578125,0.05407214164733887
1731409794088400100,11.735400146484375,0.043277740478515625,-0.0003590583801269531,0.03972434997558594
1731409794098206200,11.745206298828125,0.05647420883178711,-0.00014019012451171875,0.03738689422607422
1731409794108011500,11.755011474609375,0.05119132995605469,0.026203632354736328,0.02773571014404297
1731409794117815800,11.76481591796875,0.032269954681396484,0.014556884765625,0.00618433952331543
1731409794127621000,11.77462109375,0.00900411605834961,-0.013658523559570312,-0.015617609024047852
1731409794137427200,11.78442724609375,-0.02834796905517578,-0.020627975463867188,-0.027987957000732422
1731409794147232500,11.794232421875,-0.05858612060546875,-0.016180038452148438,-0.03326416015625
1731409794157037000,11.804037109375,-0.05126810073852539,-0.012186050415039062,-0.026623010635375977
1731409794166842400,11.81384228515625,-0.013909339904785156,-0.008432865142822266,0.013097524642944336
1731409794176648400,11.8236484375,0.018202781677246094,0.011898040771484375,0.045296430587768555
1731409794186453800,11.833453857421874,0.043200016021728516,0.015598297119140625,0.043738603591918945
1731409794196258300,11.84325830078125,0.039885520935058594,0.02157306671142578,0.029942035675048828
1731409794206063600,11.853063720703124,0.0039310455322265625,0.034716129302978516,0.04703807830810547
1731409794215869700,11.86286962890625,-0.0005102157592773438,0.04562711715698242,0.007610797882080078
1731409794225674800,11.8726748046875,0.00027179718017578125,0.009536266326904297,-0.0241546630859375
1731409794235479300,11.882479248046875,-0.01717519760131836,-0.027985572814941406,-0.017897367477416992
1731409794245284600,11.89228466796875,-0.04126119613647461,-0.024578094482421875,0.01688408851623535
1731409794255090700,11.902090576171876,-0.07729339599609375,0.006937980651855469,0.035186767578125
1731409794264896000,11.91189599609375,0.0014896392822265625,-0.023949146270751953,0.003920078277587891
1731409794274700500,11.921700439453126,0.17989158630371094,-0.10650777816772461,-0.046036720275878906
1731409794284505900,11.931505859375,0.1204233169555664,-0.06017017364501953,-0.06917715072631836
1731409794294312000,11.94131201171875,-0.07691621780395508,0.009303092956542969,-0.001804351806640625
1731409794304117200,11.9511171875,-0.1491560935974121,0.034824371337890625,0.08089542388916016
1731409794313921800,11.960921875,-0.13159751892089844,-0.04921722412109375,0.06046462059020996
1731409794323727000,11.97072705078125,-0.05844449996948242,-0.08747673034667969,0.0193023681640625
1731409794333533200,11.980533203125,-0.03417634963989258,-0.06864309310913086,-0.018152952194213867
1731409794343338500,11.99033837890625,-0.03164052963256836,-0.014737129211425781,-0.05937385559082031
1731409794353142800,12.000142822265625,0.03067922592163086,0.06922245025634766,-0.034569740295410156
1731409794362948400,12.0099482421875,0.13628196716308594,0.070068359375,0.012174844741821289
1731409794372754400,12.01975439453125,0.15496253967285156,0.07883787155151367,0.03378868103027344
1731409794382559500,12.0295595703125,0.07066822052001953,0.050481319427490234,-0.00601959228515625
1731409794392364000,12.039364013671875,-0.017029762268066406,0.013637065887451172,-0.034732818603515625
1731409794402169300,12.04916943359375,-0.05680418014526367,0.0008778572082519531,-0.036406517028808594
