time,seconds_elapsed,z,y,x
1731409782478891000,0.12589111328125,2.8477699756622314,1.2632321119308472,0.1432436853647232
1731409782488697300,0.135697265625,3.1751840114593506,1.2058124542236328,-0.08154810965061188
1731409782498502700,0.145502685546875,3.2045047283172607,1.0640959739685059,-0.2623589038848877
1731409782508307000,0.155306884765625,2.9467272758483887,0.7733326554298401,-0.4162923991680145
1731409782518112300,0.1651123046875,2.4542315006256104,0.5216635465621948,-0.4969242513179779
1731409782527918600,0.174918701171875,1.9191293716430664,0.3946073353290558,-0.457830011844635
1731409782537724000,0.184723876953125,1.4414467811584473,0.17714570462703705,-0.3662029206752777
1731409782547528200,0.194528076171875,1.051726222038269,-0.17836740612983704,-0.3258870244026184
1731409782557333800,0.204333740234375,0.7682931423187256,-0.2761029601097107,-0.3637595474720001
1731409782567139800,0.214139892578125,0.5728220343589783,0.028098974376916885,-0.4737120568752289
1731409782576945200,0.223945068359375,0.43110546469688416,0.44958359003067017,-0.6887302994728088
1731409782586749700,0.233749755859375,0.3211529552936554,0.896723747253418,-0.9917105436325073
1731409782596555000,0.243554931640625,0.17332790791988373,1.3524158000946045,-1.304464340209961
1731409782606361000,0.253361083984375,0.007177455350756645,1.6541743278503418,-1.5097090005874634
1731409782616166400,0.26316650390625,-0.07345438003540039,1.7164808511734009,-1.5805672407150269
1731409782625971000,0.272970947265625,-0.01847812905907631,1.84109365940094,-1.5940059423446655
1731409782635776500,0.282776611328125,0.0584886260330677,1.7690136432647705,-1.6172181367874146
1731409782645582600,0.29258251953125,0.08292251825332642,1.4648116827011108,-1.656312346458435
1731409782655388000,0.302387939453125,0.10979979485273361,1.2607887983322144,-1.6758594512939453
1731409782665192400,0.3121923828125,0.1391204595565796,1.1606098413467407,-1.6660858392715454
1731409782674997800,0.321997802734375,0.19654010236263275,1.0469921827316284,-1.696628212928772
1731409782684803800,0.331803955078125,0.3064926266670227,0.7953231334686279,-1.7772600650787354
1731409782694609200,0.341609130859375,0.4274403750896454,0.40193748474121094,-1.8652220964431763
1731409782704413700,0.35141357421875,0.47142136096954346,-0.04886778071522713,-1.8969861268997192
1731409782714219000,0.361218994140625,0.37979426980018616,-0.3298575282096863,-1.8016940355300903
1731409782724025000,0.371025146484375,0.15622419118881226,-0.48012593388557434,-1.601336121559143
1731409782733830400,0.380830322265625,-0.0856713280081749,-0.4605788290500641,-1.2983558177947998
1731409782743635000,0.390635009765625,-0.2652604281902313,-0.3799470067024231,-0.8793146014213562
1731409782753440300,0.400440185546875,-0.32634514570236206,-0.2357870489358902,-0.3649812340736389
1731409782763246600,0.41024658203125,-0.22005772590637207,0.06841489672660828,0.16156910359859467
1731409782773052000,0.420052001953125,-0.00015271181473508477,0.5412106513977051,0.6526902914047241
1731409782782856200,0.429856201171875,0.1782146841287613,1.1215155124664307,1.0973870754241943
1731409782792661800,0.439661865234375,0.18676654994487762,1.7005987167358398,1.5237585306167603
1731409782802467800,0.4494677734375,0.04993676394224167,2.0952060222625732,1.9354695081710815
1731409782812273200,0.459273193359375,-0.2041756957769394,2.2369227409362793,2.284874200820923
1731409782822077700,0.46907763671875,-0.5083776116371155,2.074437379837036,2.525547981262207
1731409782831883000,0.478883056640625,-0.7453863620758057,1.7030421495437622,2.6159534454345703
1731409782841689000,0.488689208984375,-0.8638907074928284,1.3707412481307983,2.580524206161499
1731409782851494400,0.498494384765625,-0.880994439125061,1.2998830080032349,2.4742367267608643
1731409782861299000,0.508298828125,-0.7783721089363098,1.5930896997451782,2.290982723236084
1731409782871104300,0.518104248046875,-0.4509579837322235,2.1257483959198,1.835290551185608
1731409782880910300,0.527910400390625,-0.26159533858299255,2.649855375289917,1.308740258216858
1731409782890716000,0.5377158203125,-0.5169295072555542,2.9407713413238525,1.1523633003234863
1731409782900520200,0.547520263671875,-0.8724426031112671,2.493478536605835,1.0485193729400635
1731409782910325800,0.55732568359375,-0.9542961120605469,0.8600729703903198,0.61481773853302
1731409782920131800,0.5671318359375,-1.289040446281433,-0.5815265774726868,0.40102121233940125
1731409782929937200,0.576937255859375,-1.6958646774291992,-1.637070655822754,0.251974493265152
1731409782939741700,0.58674169921875,-1.9744110107421875,-2.2259273529052734,0.12613995373249054
1731409782949547000,0.596547119140625,-2.024500608444214,-2.3590919971466064,0.04184303805232048
1731409782959353000,0.60635302734375,-1.890114188194275,-1.9938054084777832,0.06383354216814041
1731409782969158400,0.616158447265625,-1.6689873933792114,-1.2656755447387695,0.23364907503128052
1731409782978963000,0.625962890625,-1.4258701801300049,-0.38727715611457825,0.5488462448120117
1731409782988768300,0.635768310546875,-1.2206255197525024,0.4715740978717804,0.9776610136032104
1731409782998574300,0.64557421875,-1.1656492948532104,1.165496587753296,1.4370181560516357
1731409783008379600,0.655379638671875,-1.3085875511169434,1.4269392490386963,1.8133001327514648
1731409783018184200,0.66518408203125,-1.463742733001709,1.2840009927749634,2.064969062805176
1731409783027989800,0.67498974609375,-1.501615285873413,1.0237799882888794,2.1309406757354736
1731409783037795800,0.6847958984375,-1.5468180179595947,0.7977665066719055,2.0063278675079346
1731409783047601200,0.69460107421875,-1.8082605600357056,0.6365028619766235,1.8206303119659424
1731409783057405700,0.70440576171875,-2.0550429821014404,0.5790832042694092,1.6899089813232422
1731409783067211000,0.7142109375,-2.0611512660980225,0.6536065936088562,1.637376070022583
1731409783077017000,0.72401708984375,-1.9072178602218628,0.9590302109718323,1.6850221157073975
1731409783086822400,0.733822509765625,-1.7862701416015625,1.3817365169525146,1.8694980144500732
1731409783096627000,0.743626953125,-1.737402319908142,1.8154380321502686,2.1798083782196045
1731409783106432300,0.753432373046875,-1.7178552150726318,2.2051587104797363,2.5292131900787354
1731409783116238300,0.76323828125,-1.7007514238357544,2.4568276405334473,2.8273065090179443
1731409783126043600,0.773043701171875,-1.6860911846160889,2.3871910572052,3.029038906097412
1731409783135848200,0.78284814453125,-1.6738742589950562,2.4922568798065186,3.1915242671966553
1731409783145653500,0.792653564453125,-1.6274497509002686,2.5069172382354736,3.3491227626800537
1731409783155459800,0.8024599609375,-1.5627000331878662,2.5386812686920166,3.4004340171813965
1731409783165265200,0.81226513671875,-1.4625210762023926,2.45927095413208,3.4297547340393066
1731409783175069400,0.8220693359375,-1.289040446281433,2.2027151584625244,3.498169422149658
1731409783184875000,0.831875,-1.0666919946670532,1.9046217203140259,3.564141035079956
1731409783194681000,0.84168115234375,-0.8321266770362854,1.550330400466919,3.59224009513855
1731409783204486400,0.851486328125,-0.6073349118232727,1.0702043771743774,3.534820318222046
1731409783214291000,0.861291015625,-0.4546230733394623,0.4984513521194458,3.3479011058807373
1731409783224096300,0.87109619140625,-0.409420371055603,-0.09284878522157669,3.0705764293670654
1731409783233902300,0.88090234375,-0.40697699785232544,-0.5644228458404541,2.8224196434020996
1731409783243707600,0.890707763671875,-0.30191126465797424,-0.7513421177864075,2.7405662536621094
1731409783253512200,0.90051220703125,-0.1907370537519455,-0.7806627750396729,2.834636688232422
1731409783263317800,0.91031787109375,-0.045355409383773804,-0.7085828185081482,2.918933629989624
1731409783273123800,0.920123779296875,0.1647760421037674,-0.6230642199516296,2.925042152404785
1731409783282929200,0.92992919921875,0.35536038875579834,-0.9455915689468384,2.80898118019104
1731409783292733700,0.939733642578125,0.47142136096954346,-1.391510009765625,2.392383337020874
1731409783302539000,0.9495390625,0.455539345741272,-1.793447494506836,1.8145217895507812
1731409783312345000,0.959344970703125,0.3614688515663147,-2.1257483959198,1.3111836910247803
1731409783322150400,0.969150390625,0.2942756712436676,-2.2955639362335205,0.9495620727539062
1731409783331955000,0.978954833984375,0.2820587158203125,-2.3163328170776367,0.7284353375434875
1731409783341760300,0.98876025390625,0.2796153426170349,-2.192941665649414,0.5854970812797546
1731409783351566300,0.99856640625,0.2429644912481308,-1.910730242729187,0.4352286756038666
1731409783361371600,1.00837158203125,0.1782146841287613,-1.4977974891662598,0.2886253297328949
1731409783371176200,1.01817626953125,0.06704048812389374,-1.1508362293243408,0.24464432895183563
1731409783380981500,1.0279814453125,-0.09544488787651062,-1.0286667346954346,0.44011545181274414
1731409783390787800,1.037787841796875,-0.20051060616970062,-1.0298885107040405,0.8102889060974121
1731409783400593200,1.04759326171875,-0.1650814712047577,-1.022558331489563,1.2134480476379395
1731409783410397400,1.0573974609375,-0.006261184345930815,-0.9211576581001282,1.534753680229187
1731409783420203000,1.067203125,0.16844113171100616,-0.7427902817726135,1.730224847793579
1731409783430009000,1.077009033203125,0.2954973578453064,-0.46668729186058044,1.7424417734146118
1731409783439814400,1.086814453125,0.3333698809146881,-0.16859383881092072,1.6104987859725952
1731409783449619000,1.096618896484375,0.26128992438316345,0.05986303091049194,1.4138059616088867
1731409783459424300,1.10642431640625,0.11346487700939178,0.23823043704032898,1.2000094652175903
1731409783469230300,1.116230224609375,-0.06734590977430344,0.3921639323234558,1.0363023281097412
1731409783479035600,1.12603564453125,-0.24449162185192108,0.46668729186058044,0.9630007147789001
1731409783488840200,1.135840087890625,-0.3507790267467499,0.46424391865730286,0.9361234307289124
1731409783498645500,1.1456455078125,-0.3605526089668274,0.31886225938796997,0.9239065051078796
1731409783508451800,1.155451904296875,-0.29091599583625793,0.028098974376916885,0.901915967464447
1731409783518257200,1.165257080078125,-0.19318044185638428,-0.29442837834358215,0.8774821162223816
1731409783528061400,1.1750615234375,-0.13576079905033112,-0.5448757410049438,0.8921424150466919
1731409783537867000,1.184866943359375,-0.13942588865756989,-0.6096255779266357,0.9678874611854553
1731409783547673000,1.194673095703125,-0.22127941250801086,-0.3946073353290558,1.0802834033966064
1731409783557478400,1.204478515625,-0.37887802720069885,0.05741964280605316,1.2403253316879272
1731409783567283000,1.214282958984375,-0.5328115224838257,0.6181774139404297,1.4846643209457397
1731409783577088300,1.224088134765625,-0.6183301210403442,1.1838220357894897,1.7913095951080322
1731409783586894300,1.233894287109375,-0.6244385838508606,1.6456224918365479,2.079629421234131
1731409783596699600,1.24369970703125,-0.5621321797370911,1.832541823387146,2.288539171218872
1731409783606504200,1.253504150390625,-0.44729289412498474,1.712815761566162,2.3557324409484863
1731409783616309500,1.2633095703125,-0.3312319219112396,1.3878449201583862,2.2543318271636963
1731409783626115800,1.27311572265625,-0.2591519355773926,0.9590302109718323,2.034426689147949
1731409783635921200,1.282921142578125,-0.22127941250801086,0.5558710098266602,1.7497719526290894
1731409783645725400,1.292725341796875,-0.2029540091753006,0.24067382514476776,1.4773341417312622
1731409783655531000,1.302531005859375,-0.18340688943862915,0.029320668429136276,1.2965233325958252
1731409783665337000,1.312337158203125,-0.1369825005531311,-0.0525328628718853,1.2048962116241455
1731409783675142400,1.322142333984375,-0.09177979826927185,-0.07330167293548584,1.165802001953125
1731409783684947000,1.331947021484375,-0.10277505218982697,-0.1588202863931656,1.1780189275741577
1731409783694752300,1.341752197265625,-0.14186927676200867,-0.284654825925827,1.18046236038208
1731409783704558300,1.351558349609375,-0.14553436636924744,-0.33718767762184143,1.064401388168335
1731409783714364000,1.361364013671875,-0.11865708231925964,-0.25777754187583923,0.6013791561126709
1731409783724168200,1.371168212890625,-0.10766182839870453,-0.2223484069108963,-0.010689826682209969
1731409783733973500,1.380973388671875,-0.1516428291797638,-0.25533416867256165,-0.27091076970100403
1731409783743779800,1.39077978515625,-0.15652960538864136,-0.08429691940546036,-0.2745758295059204
1731409783753585200,1.400585205078125,-0.0844496339559555,0.16370706260204315,-0.20371755957603455
1731409783763389700,1.4103896484375,0.010842538438737392,0.26755109429359436,-0.17317520081996918
1731409783773195000,1.420195068359375,0.1122431829571724,0.17592400312423706,-0.2635805904865265
1731409783783001000,1.4300009765625,0.2588465213775635,-0.008551862090826035,-0.4847072958946228
1731409783792806400,1.439806396484375,0.43110546469688416,-0.09651386737823486,-0.8182299137115479
1731409783802611000,1.44961083984375,0.5630484819412231,-0.10262233763933182,-1.1945117712020874
1731409783812416300,1.459416259765625,0.6180247068405151,-0.09284878522157669,-1.5817890167236328
1731409783822222600,1.46922265625,0.616802990436554,0.0390942245721817,-2.068023443222046
1731409783832028000,1.47902783203125,0.5996993184089661,0.2858765125274658,-2.655811071395874
1731409783841832200,1.488832275390625,0.5716003179550171,0.4850127100944519,-3.231229305267334
1731409783851637800,1.4986376953125,0.5398362874984741,0.5937435626983643,-3.76877498626709
1731409783861443800,1.50844384765625,0.5141806602478027,0.5644228458404541,-4.28555154800415
1731409783871249200,1.518249267578125,0.5349494814872742,0.31886225938796997,-4.735135078430176
1731409783881053700,1.5280537109375,0.5935907959938049,-0.0390942245721817,-5.064992904663086
1731409783890859000,1.53785888671875,0.6607840061187744,-0.3286358118057251,-5.238473415374756
1731409783900665000,1.5476650390625,0.7267554998397827,-0.4850127100944519,-5.245803356170654
1731409783910470400,1.557470458984375,0.789061963558197,-0.5583143830299377,-5.074766159057617
1731409783920275000,1.56727490234375,0.8391514420509338,-0.5888567566871643,-4.727805137634277
1731409783930080300,1.577080322265625,0.8806890249252319,-0.5497625470161438,-4.246457576751709
1731409783939886600,1.586886474609375,0.9112313985824585,-0.37506023049354553,-3.6918082237243652
1731409783949692000,1.59669189453125,0.9087880253791809,-0.05375456064939499,-3.078517436981201
1731409783959496400,1.606496337890625,0.8770239353179932,0.33352261781692505,-2.3858165740966797
1731409783969301800,1.6163017578125,0.844038188457489,0.7403468489646912,-1.601336121559143
1731409783979107800,1.62610791015625,0.7866185307502747,1.1288456916809082,-0.7327113151550293
1731409783988913200,1.6359130859375,0.6754443645477295,1.3902883529663086,0.1969982385635376
1731409783998717700,1.6457177734375,0.4628695249557495,1.3976185321807861,1.1022738218307495
1731409784008523000,1.65552294921875,0.15988926589488983,1.155722975730896,1.9147007465362549
1731409784018329000,1.6653291015625,-0.14064757525920868,0.7660024762153625,2.6110665798187256
1731409784028134700,1.675134765625,-0.3764346241950989,0.3139754831790924,3.1951892375946045
1731409784037939000,1.68493896484375,-0.5364766120910645,-0.12827792763710022,3.6814236640930176
1731409784047744500,1.69474462890625,-0.6342121958732605,-0.5070032477378845,4.10535192489624
1731409784057550600,1.704550537109375,-0.6879667043685913,-0.8258655071258545,4.497515678405762
1731409784067356000,1.71435595703125,-0.705070436000824,-1.0091196298599243,4.892123222351074
1731409784077160400,1.724160400390625,-0.7258392572402954,-0.9969027042388916,5.308720588684082
1731409784086965800,1.7339658203125,-0.8015843033790588,-0.8441908955574036,5.738757133483887
1731409784096771800,1.743771728515625,-0.8797727823257446,-0.5888567566871643,6.140694618225098
1731409784106577200,1.7535771484375,-0.9213103652000427,-0.28343313932418823,6.469330787658691
1731409784116381700,1.763381591796875,-0.8944330811500549,-0.01832541823387146,6.702674388885498
1731409784126187000,1.77318701171875,-0.7612683773040771,0.12216944992542267,6.784527778625488
1731409784135993300,1.782993408203125,-0.6073349118232727,0.11117420345544815,6.666023254394531
1731409784145798700,1.792798583984375,-0.5218162536621094,-0.04886778071522713,6.342274188995361
1731409784155603200,1.802603271484375,-0.22738789021968842,1.1752700805664062,3.5067214965820312
1731409784165408500,1.812408447265625,0.15622419118881226,0.4178195297718048,-0.8536590337753296
1731409784175214600,1.822214599609375,-0.2945810854434967,-2.1416304111480713,-2.027707576751709
1731409784185020000,1.83202001953125,-0.44484952092170715,-3.0556106567382812,-1.8615570068359375
1731409784194824400,1.841824462890625,-0.00992626789957285,-2.404294729232788,-1.4559544324874878
1731409784204629800,1.851629638671875,0.2930539846420288,-0.9064973592758179,-1.2910256385803223
1731409784214436000,1.86143603515625,0.2808370292186737,0.2223484069108963,-1.231162667274475
1731409784224241400,1.871241455078125,0.1391204595565796,0.7440119385719299,-1.239714503288269
1731409784234045700,1.881045654296875,0.03894151374697685,1.0005677938461304,-1.4877184629440308
1731409784243851300,1.890851318359375,0.025502873584628105,1.0323318243026733,-1.9177550077438354
1731409784253657300,1.9006572265625,0.0841442123055458,0.8637380003929138,-2.406585454940796
1731409784263462700,1.910462646484375,0.20142687857151031,0.5888567566871643,-2.9062585830688477
1731409784273267200,1.92026708984375,0.34192174673080444,0.2626643180847168,-3.410818338394165
1731409784283072500,1.930072509765625,0.47386476397514343,-0.09651386737823486,-3.873840570449829
1731409784292878800,1.93987890625,0.5789304971694946,-0.45080527663230896,-4.229353904724121
1731409784302684200,1.94968408203125,0.6571189165115356,-0.7317950129508972,-4.443150043487549
1731409784312488400,1.959488525390625,0.7047650218009949,-0.8710681796073914,-4.526225566864014
1731409784322294000,1.9692939453125,0.7120952010154724,-0.8502993583679199,-4.517673492431641
1731409784332100000,1.97910009765625,0.7023216485977173,-0.7012526392936707,-4.44559383392334
1731409784341905400,1.988905517578125,0.7010999321937561,-0.4886777997016907,-4.329532623291016
1731409784351710000,1.9987099609375,0.7010999321937561,-0.26632940769195557,-4.178042411804199
1731409784361515300,2.008515380859375,0.6766660213470459,-0.10628741979598999,-4.00089693069458
1731409784371321600,2.018321533203125,0.60825115442276,-0.05619794875383377,-3.8054256439208984
1731409784381127000,2.028126953125,0.5227325558662415,-0.10140064358711243,-3.607511281967163
1731409784390931500,2.037931396484375,0.44332239031791687,-0.19424942135810852,-3.42547869682312
1731409784400736800,2.04773681640625,0.3736858069896698,-0.26877278089523315,-3.2422244548797607
1731409784410542800,2.05754296875,0.3199312388896942,-0.2748812735080719,-3.0186543464660645
1731409784420348200,2.06734814453125,0.27350685000419617,-0.21990501880645752,-2.716895818710327
1731409784430152700,2.077152587890625,0.19409671425819397,-0.17225892841815948,-2.319845199584961
1731409784439958000,2.0869580078125,0.0988045409321785,-0.10873081535100937,-1.8676655292510986
1731409784449764400,2.096764404296875,0.010842538438737392,0.061084724962711334,-1.420525312423706
1731409784459569700,2.106569580078125,-0.06978929787874222,0.32130566239356995,-0.9843803644180298
1731409784469374000,2.1163740234375,-0.13453911244869232,0.5192201733589172,-0.5164713859558105
1731409784479179500,2.126179443359375,-0.18707197904586792,0.6438329815864563,-0.008246437646448612
1731409784488985600,2.135985595703125,-0.22372281551361084,0.7733326554298401,0.48898324370384216
1731409784498791000,2.145791015625,-0.2298312783241272,0.7989882230758667,0.9349017143249512
1731409784508595500,2.155595458984375,-0.2029540091753006,0.5351021885871887,1.3026317358016968
1731409784518400800,2.16540087890625,-0.14553436636924744,0.042759306728839874,1.5225367546081543
1731409784528206800,2.175206787109375,-0.09300149232149124,-0.2089097648859024,1.5726262331008911
1731409784538012400,2.185012451171875,-0.06856760382652283,-0.12461283802986145,1.6153855323791504
1731409784547817000,2.19481689453125,-0.06734590977430344,-0.2345653474330902,1.8059699535369873
1731409784557622300,2.204622314453125,-0.19806721806526184,-0.3127537965774536,2.105285167694092
1731409784567428400,2.214428466796875,-0.33978378772735596,-0.28343313932418823,2.4351425170898438
1731409784577233700,2.224233642578125,-0.44607120752334595,-0.25777754187583923,2.756448268890381
1731409784587038200,2.2340380859375,-0.5499152541160583,-0.15515519678592682,3.046142578125
1731409784596843500,2.243843505859375,-0.6000047326087952,-0.0012216945178806782,3.3112502098083496
1731409784606649900,2.25364990234375,-0.5963396430015564,0.13316470384597778,3.593461751937866
1731409784616455200,2.263455078125,-0.5401417016983032,0.22723518311977386,3.8927769660949707
1731409784626259700,2.273259765625,-0.4497362971305847,0.27976804971694946,4.195756912231445
1731409784636065000,2.28306494140625,-0.3972034156322479,0.2651077210903168,4.507289409637451
1731409784645871000,2.29287109375,-0.41797223687171936,0.13438639044761658,4.816378116607666
1731409784655676400,2.302676513671875,-0.48272204399108887,-0.08429691940546036,5.102254390716553
1731409784665481000,2.31248095703125,-0.5218162536621094,-0.258999228477478,5.360032081604004
1731409784675286300,2.322286376953125,-0.48516544699668884,-0.3408527672290802,5.606814384460449
1731409784685092600,2.332092529296875,-0.42041563987731934,-0.2870981991291046,5.873143672943115
1731409784694898000,2.34189794921875,-0.34100547432899475,-0.08796200156211853,6.1516900062561035
1731409784704702500,2.351702392578125,-0.2420482337474823,0.21501824259757996,6.399693965911865
1731409784714507800,2.3615078125,-0.12110047042369843,0.5045598149299622,6.52919340133667
1731409784724313900,2.37131396484375,0.1513374149799347,2.216153860092163,3.9782955646514893
1731409784734119400,2.381119384765625,0.35536038875579834,1.7958909273147583,-0.3038965165615082
1731409784743923700,2.390923828125,-0.06001574173569679,-0.9187142848968506,-1.6037794351577759
1731409784753729300,2.400729248046875,-0.48394373059272766,-2.1514041423797607,-1.6074445247650146
1731409784763535400,2.410535400390625,-0.32756683230400085,-2.1343002319335938,-1.1712995767593384
1731409784773340700,2.420340576171875,0.0988045409321785,-1.2143644094467163,-0.8964183330535889
1731409784783145200,2.430145263671875,0.372464120388031,0.062306419014930725,-0.9367342591285706
1731409784792950500,2.439950439453125,0.4164451062679291,0.9700254201889038,-1.0014840364456177
1731409784802756900,2.4497568359375,0.28694549202919006,1.2778924703598022,-1.0760074853897095
1731409784812562200,2.459562255859375,0.08903098851442337,1.2522368431091309,-1.2800304889678955
1731409784822366700,2.46936669921875,-0.05024218559265137,1.1080769300460815,-1.6135530471801758
1731409784832172000,2.479172119140625,-0.125987246632576,0.8783983588218689,-2.0057170391082764
1731409784841978000,2.48897802734375,-0.16019469499588013,0.5717530250549316,-2.423689126968384
1731409784851783400,2.498783447265625,-0.15530791878700256,0.21257483959197998,-2.8647208213806152
1731409784861588000,2.508587890625,-0.125987246632576,-0.0647498071193695,-3.328964948654175
1731409784871393500,2.5183935546875,-0.08078455179929733,-0.21257483959197998,-3.7480061054229736
1731409784881199600,2.52819970703125,-0.047798797488212585,-0.31031039357185364,-4.031439304351807
1731409784891005000,2.5380048828125,-0.014813045971095562,-0.40193748474121094,-4.169490814208984
1731409784900809500,2.5478095703125,0.012064233422279358,-0.4715740978717804,-4.204919815063477
1731409784910614800,2.55761474609375,0.04871506989002228,-0.5045598149299622,-4.176820755004883
1731409784920420900,2.5674208984375,0.10246963053941727,-0.49356457591056824,-4.12184476852417
1731409784930226200,2.57722607421875,0.16966283321380615,-0.42514967918395996,-4.070533275604248
1731409784940030700,2.58703076171875,0.23807771503925323,-0.3176405727863312,-4.037547588348389
1731409784949836300,2.596836181640625,0.2967190444469452,-0.20768806338310242,-4.011892318725586
1731409784959642400,2.606642333984375,0.32848310470581055,-0.10262233763933182,-3.994788408279419
1731409784969447700,2.61644775390625,0.3187095522880554,-0.010995250195264816,-3.9679110050201416
1731409784979252200,2.626252197265625,0.2808370292186737,0.05497625470161438,-3.905604600906372
1731409784989057500,2.6360576171875,0.22097399830818176,0.08796200156211853,-3.7883219718933105
1731409784998864000,2.64586376953125,0.14767232537269592,0.08918370306491852,-3.6233932971954346
1731409785008669200,2.655669189453125,0.08903098851442337,0.07696675509214401,-3.427922010421753
1731409785018473700,2.6654736328125,0.06581879407167435,0.05864133685827255,-3.2092387676239014
1731409785028279000,2.675279052734375,0.07437065243721008,0.025655584409832954,-2.973451852798462
1731409785038085000,2.685085205078125,0.0975828468799591,-0.021990500390529633,-2.733999729156494
1731409785047890400,2.694890380859375,0.1256818175315857,-0.09040539711713791,-2.501877546310425
1731409785057695000,2.704695068359375,0.15378080308437347,-0.1588202863931656,-2.27937650680542
1731409785067500500,2.71450048828125,0.1757712960243225,-0.17836740612983704,-2.059471607208252
1731409785077306600,2.724306640625,0.18676654994487762,-0.19180603325366974,-1.831014633178711
1731409785087112000,2.73411181640625,0.18310146033763885,-0.18936264514923096,-1.5915625095367432
1731409785096916500,2.74391650390625,0.14645062386989594,-0.16370706260204315,-1.3203463554382324
1731409785106721800,2.7537216796875,0.09147437661886215,-0.15026842057704926,-0.9941539168357849
1731409785116528000,2.763528076171875,0.026724567636847496,-0.15393351018428802,-0.6117635369300842
1731409785126333400,2.77333349609375,-0.05268557742238045,-0.19180603325366974,-0.20738264918327332
1731409785136138000,2.783137939453125,-0.13209572434425354,-0.25533416867256165,0.19455485045909882
1731409785145943300,2.792943359375,-0.1882936656475067,-0.3005368411540985,0.587940514087677
1731409785155749400,2.802749267578125,-0.2151709496974945,-0.3127537965774536,0.9727742671966553
1731409785165555000,2.812554931640625,-0.20539739727973938,-0.28098973631858826,1.3478344678878784
1731409785175359200,2.822359130859375,-0.17118994891643524,-0.19302773475646973,1.7131211757659912
1731409785185164800,2.832164794921875,-0.10766182839870453,-0.061084724962711334,2.068634271621704
1731409785194971000,2.841970947265625,-0.02092151902616024,0.1050657257437706,2.4253690242767334
1731409785204776200,2.851776123046875,0.07681404054164886,0.2883199155330658,2.7869906425476074
1731409785214580700,2.861580810546875,0.16844113171100616,0.4459185004234314,3.153651714324951
1731409785224386000,2.871385986328125,0.22708246111869812,0.5412106513977051,3.514051675796509
1731409785234192400,2.8811923828125,0.2564031481742859,0.5900784730911255,3.8524608612060547
1731409785243997700,2.890997802734375,0.26128992438316345,0.6181774139404297,4.162771224975586
1731409785253802200,2.90080224609375,0.24662958085536957,0.629172682762146,4.449869632720947
1731409785263607600,2.910607666015625,0.23441264033317566,0.624285876750946,4.7284159660339355
1731409785273413600,2.92041357421875,0.21853061020374298,0.5900784730911255,5.004518985748291
1731409785283219200,2.93021923828125,0.18432316184043884,0.5167768001556396,5.2781782150268555
1731409785293023500,2.9400234375,0.13423368334770203,0.42637139558792114,5.53473424911499
1731409785302829000,2.9498291015625,0.08047912269830704,0.3054236173629761,5.764412879943848
1731409785312635100,2.95963525390625,0.04993676394224167,0.14049486815929413,5.957440376281738
1731409785322440400,2.9694404296875,0.03161134570837021,-0.05864133685827255,6.093048572540283
1731409785332245000,2.979244873046875,0.03649812191724777,-0.25289076566696167,6.165128707885742
1731409785342050300,2.98905029296875,0.08903098851442337,-0.3665083646774292,6.209109783172607
1731409785351856600,2.998856689453125,0.22097399830818176,-0.37506023049354553,6.266529083251953
1731409785361662000,3.008661865234375,0.3834593594074249,-0.3555130958557129,6.336165904998779
1731409785371466500,3.018466552734375,0.5166240930557251,-0.5766398310661316,6.343495845794678
1731409785381271800,3.028271728515625,0.6058077812194824,0.6939224600791931,3.4150943756103516
1731409785391078000,3.038077880859375,0.6705575585365295,0.7085828185081482,-1.8212411403656006
1731409785400883500,3.047883544921875,0.28572380542755127,-1.5307831764221191,-2.9758951663970947
1731409785410687700,3.057687744140625,-0.3568875193595886,-2.3126676082611084,-2.294036865234375
1731409785420493300,3.067493408203125,-0.6171084642410278,-1.878966212272644,-1.388761281967163
1731409785430299400,3.07729931640625,-0.40819868445396423,-1.0738694667816162,-0.6875085830688477
1731409785440104700,3.087104736328125,-0.16752485930919647,-0.09284878522157669,-0.35887277126312256
1731409785449909200,3.0969091796875,-0.14553436636924744,0.6731536984443665,-0.17317520081996918
1731409785459714800,3.10671484375,-0.2713688910007477,0.9639169573783875,0.09315420687198639
1731409785469521000,3.11652099609375,-0.40453359484672546,0.9370396733283997,0.42423340678215027
1731409785479326200,3.126326171875,-0.46073153614997864,0.8283088803291321,0.7382088899612427
1731409785489130800,3.136130859375,-0.40331190824508667,0.6560499668121338,1.0118684768676758
1731409785498936000,3.14593603515625,-0.25060009956359863,0.4214846193790436,1.2146698236465454
1731409785508742400,3.155742431640625,-0.06001574173569679,0.1844758689403534,1.2378820180892944
1731409785518547700,3.165547607421875,0.111021488904953,0.17836740612983704,0.6685723066329956
1731409785528352300,3.175352294921875,0.18676654994487762,0.021990500390529633,-0.2354816198348999
1731409785538157600,3.185157470703125,0.1378987729549408,-0.3567348122596741,-0.6630746722221375
1731409785547963600,3.194963623046875,0.06337540596723557,-0.497229665517807,-0.6374191045761108
1731409785557769000,3.20476904296875,0.06704048812389374,-0.2980934679508209,-0.3674246370792389
1731409785567573500,3.214573486328125,0.11590826511383057,0.029320668429136276,-0.05344913527369499
1731409785577379000,3.224379150390625,0.13056860864162445,0.30786702036857605,0.1835595965385437
1731409785587185200,3.23418505859375,0.08170082420110703,0.43858832120895386,0.30572906136512756
1731409785596990500,3.243990478515625,0.009620844386518002,0.4227063059806824,0.30939415097236633
1731409785606795000,3.253794921875,-0.04046862944960594,0.30786702036857605,0.21532365679740906
1731409785616600300,3.263600341796875,-0.06123743951320648,0.1588202863931656,0.08826743066310883
1731409785626406700,3.27340673828125,-0.0587940476834774,0.01588202826678753,-0.010689826682209969
1731409785636212000,3.2832119140625,-0.05390727147459984,-0.1050657257437706,-0.057114217430353165
1731409785646016500,3.2930166015625,-0.05390727147459984,-0.1563768982887268,-0.059557609260082245
1731409785655821800,3.30282177734375,-0.03558185324072838,-0.12339114397764206,-0.026571854948997498
1731409785665628000,3.3126279296875,-0.012369656935334206,-0.07574506103992462,0.017409147694706917
1731409785675433500,3.32243359375,-0.0038177953101694584,-0.05497625470161438,0.03573456406593323
1731409785685237800,3.33223779296875,-0.00259610079228878,-0.05497625470161438,0.016187451779842377
1731409785695043300,3.342043212890625,0.0010689827613532543,-0.06719319522380829,-0.016798298805952072
1731409785704849400,3.351849365234375,0.013285927474498749,-0.08185353130102158,-0.040010496973991394
1731409785714654700,3.36165478515625,0.029167955741286278,-0.09895725548267365,-0.04856235533952713
1731409785724459300,3.371459228515625,0.0462716780602932,-0.11483928561210632,-0.05100574716925621
1731409785734264800,3.381264892578125,0.05482354015111923,-0.12339114397764206,-0.05344913527369499
1731409785744071000,3.39107080078125,0.05726693198084831,-0.12827792763710022,-0.055892523378133774
1731409785753876200,3.400876220703125,0.0584886260330677,-0.12583453953266144,-0.05344913527369499
1731409785763680800,3.4106806640625,0.04993676394224167,-0.12461283802986145,-0.04978405311703682
1731409785773486000,3.420486083984375,0.029167955741286278,-0.12827792763710022,-0.04611896723508835
1731409785783292400,3.43029248046875,0.009620844386518002,-0.11117420345544815,-0.041232191026210785
1731409785793097700,3.44009765625,-0.0050394898280501366,-0.07085828483104706,-0.03023693896830082
1731409785802902300,3.44990234375,-0.012369656935334206,-0.01588202826678753,-0.008246437646448612
1731409785812707600,3.45970751953125,-0.02214321307837963,0.029320668429136276,0.018630841746926308
1731409785822513700,3.469513671875,-0.023364907130599022,0.061084724962711334,0.04184303805232048
1731409785832319000,3.479319091796875,-0.023364907130599022,0.08063183724880219,0.051616594195365906
1731409785842123500,3.48912353515625,-0.024586603045463562,0.0916270911693573,0.04184303805232048
1731409785851929000,3.49892919921875,-0.01969982497394085,0.10262233763933182,0.02107422985136509
1731409785861735200,3.508735107421875,-0.013591351918876171,0.10017894953489304,0.0015271181473508477
1731409785871540500,3.51854052734375,-0.00259610079228878,0.0916270911693573,-0.019241688773036003
1731409785881345000,3.528344970703125,0.008399149402976036,0.07574506103992462,-0.040010496973991394
1731409785891150300,3.538150390625,0.01695101149380207,0.0525328628718853,-0.058335911482572556
1731409785900956700,3.547956787109375,0.021837789565324783,0.03176405653357506,-0.07055285573005676
1731409785910762000,3.557761962890625,0.01817270554602146,0.01710372418165207,-0.07666133344173431
1731409785920566500,3.56756640625,0.010842538438737392,0.009773556143045425,-0.07299624383449554
1731409785930371800,3.577371826171875,0.004734066314995289,0.008551862090826035,-0.06200099736452103
1731409785940178200,3.58717822265625,-0.0050394898280501366,0.014660334214568138,-0.04978405311703682
1731409785949983500,3.5969833984375,-0.011147962883114815,0.021990500390529633,-0.038788799196481705
1731409785959787800,3.606787841796875,-0.01847812905907631,0.03665083646774292,-0.02901524491608143
1731409785969593300,3.61659326171875,-0.02214321307837963,0.05864133685827255,-0.016798298805952072
1731409785979399400,3.6263994140625,-0.025808297097682953,0.07574506103992462,-0.004581354558467865
1731409785989204700,3.636204833984375,-0.031916771084070206,0.08185353130102158,0.008857285603880882
1731409785999009300,3.64600927734375,-0.03802524134516716,0.0781884491443634,0.0198525357991457
1731409786008814800,3.65581494140625,-0.04046862944960594,0.06841489672660828,0.02351761981844902
1731409786018621000,3.665620849609375,-0.0331384651362896,0.061084724962711334,0.018630841746926308
1731409786028426200,3.67542626953125,-0.025808297097682953,0.0525328628718853,0.003970507066696882
1731409786038230800,3.685230712890625,-0.024586603045463562,0.043981000781059265,-0.010689826682209969
1731409786048036000,3.6950361328125,-0.023364907130599022,0.03787253051996231,-0.021685076877474785
1731409786057842400,3.704842529296875,-0.01969982497394085,0.03542914241552353,-0.027793550863862038
1731409786067647700,3.714647705078125,-0.016034740954637527,0.04153761267662048,-0.03268032893538475
1731409786077452300,3.724452392578125,-0.00992626789957285,0.045202698558568954,-0.03268032893538475
1731409786087257600,3.734257568359375,-0.00992626789957285,0.04153761267662048,-0.03145863488316536
1731409786097063700,3.744063720703125,-0.008704573847353458,0.03298575058579445,-0.03634541109204292
1731409786106869000,3.753868896484375,-0.011147962883114815,0.010995250195264816,-0.04489727318286896
1731409786116673500,3.763673583984375,-0.012369656935334206,-0.01832541823387146,-0.0522274412214756
1731409786126479000,3.77347900390625,-0.011147962883114815,-0.04153761267662048,-0.057114217430353165
1731409786136285200,3.78328515625,-0.008704573847353458,-0.05375456064939499,-0.055892523378133774
1731409786146090500,3.793090576171875,-0.008704573847353458,-0.062306419014930725,-0.04978405311703682
1731409786155895000,3.80289501953125,-0.011147962883114815,-0.07085828483104706,-0.042453885078430176
1731409786165700400,3.812700439453125,-0.012369656935334206,-0.07696675509214401,-0.03634541109204292
1731409786175506700,3.822506591796875,-0.013591351918876171,-0.07452336698770523,-0.03145863488316536
1731409786185312000,3.83231201171875,-0.00992626789957285,-0.06719319522380829,-0.022906772792339325
1731409786195116500,3.842116455078125,-0.0038177953101694584,-0.05497625470161438,-0.010689826682209969
1731409786204921900,3.851921875,0.0010689827613532543,-0.042759306728839874,0.00030542362947016954
1731409786214728000,3.86172802734375,0.004734066314995289,-0.026877280324697495,0.007635590620338917
1731409786224533200,3.871533203125,0.007177455350756645,-0.021990500390529633,0.010078979656100273
1731409786234337800,3.881337890625,0.007177455350756645,-0.04031591862440109,0.002748812548816204
1731409786244143400,3.891143310546875,0.004734066314995289,-0.06719319522380829,-0.010689826682209969
1731409786253949400,3.900949462890625,0.004734066314995289,-0.08185353130102158,-0.019241688773036003
1731409786263754800,3.910754638671875,0.004734066314995289,-0.07574506103992462,-0.021685076877474785
1731409786273559300,3.920559326171875,0.005955760832875967,-0.05375456064939499,-0.018019994720816612
1731409786283364600,3.930364501953125,0.007177455350756645,-0.03176405653357506,-0.008246437646448612
1731409786293171000,3.9401708984375,0.010842538438737392,-0.025655584409832954,-0.0021379655227065086
1731409786302976300,3.949976318359375,0.004734066314995289,-0.04153761267662048,-0.0009162708884105086
1731409786312780800,3.95978076171875,-0.0038177953101694584,-0.06719319522380829,-0.005803049076348543
1731409786322586000,3.969586181640625,-0.008704573847353458,-0.0794101431965828,-0.015576604753732681
1731409786332392400,3.979392333984375,-0.00992626789957285,-0.06352811306715012,-0.025350160896778107
1731409786342197800,3.98919775390625,-0.008704573847353458,-0.0390942245721817,-0.03023693896830082
1731409786352002000,3.999001953125,-0.007482878863811493,-0.023212196305394173,-0.027793550863862038
1731409786361807600,4.0088076171875,-0.001374406274408102,-0.01832541823387146,-0.022906772792339325
1731409786371613700,4.01861376953125,0.004734066314995289,-0.025655584409832954,-0.016798298805952072
1731409786381419000,4.0284189453125,0.008399149402976036,-0.03542914241552353,-0.010689826682209969
1731409786391223600,4.0382236328125,0.010842538438737392,-0.023212196305394173,-0.004581354558467865
1731409786401028900,4.04802880859375,0.013285927474498749,0.009773556143045425,0.003970507066696882
1731409786410835200,4.057835205078125,0.014507622458040714,0.03787253051996231,0.01252236869186163
1731409786420640500,4.067640625,0.012064233422279358,0.0525328628718853,0.02107422985136509
1731409786430445000,4.077445068359375,0.010842538438737392,0.05741964280605316,0.02473931387066841
1731409786440250400,4.08725048828125,0.004734066314995289,0.05497625470161438,0.02351761981844902
1731409786450056700,4.097056640625,0.007177455350756645,0.04886778071522713,0.017409147694706917
1731409786459862000,4.106862060546875,0.012064233422279358,0.04153761267662048,0.011300674639642239
1731409786469666600,4.11666650390625,0.020616095513105392,0.03420744836330414,0.003970507066696882
1731409786479471900,4.126471923828125,0.023059483617544174,0.024433890357613564,-0.0009162708884105086
1731409786489278000,4.13627783203125,0.01817270554602146,0.007330167107284069,-0.003359660040587187
1731409786499083300,4.146083251953125,0.013285927474498749,-0.01588202826678753,-0.009468132629990578
1731409786508887800,4.1558876953125,0.012064233422279358,-0.03420744836330414,-0.015576604753732681
1731409786518693400,4.165693359375,0.014507622458040714,-0.03665083646774292,-0.018019994720816612
1731409786528499500,4.17549951171875,0.020616095513105392,-0.028098974376916885,-0.019241688773036003
1731409786538304800,4.1853046875,0.027946261689066887,-0.01588202826678753,-0.020463382825255394
1731409786548109300,4.195109375,0.030389651656150818,-0.013438640162348747,-0.019241688773036003
1731409786557914600,4.20491455078125,0.027946261689066887,-0.01832541823387146,-0.015576604753732681
1731409786567720700,4.214720703125,0.021837789565324783,-0.013438640162348747,-0.007024743594229221
1731409786577526300,4.2245263671875,0.01572931744158268,0.0024433890357613564,0.007635590620338917
1731409786587330800,4.234330810546875,0.01695101149380207,0.014660334214568138,0.02473931387066841
1731409786597136100,4.24413623046875,0.01817270554602146,0.01710372418165207,0.03451287001371384
1731409786606942200,4.253942138671875,0.019394399598240852,0.013438640162348747,0.03817795217037201
1731409786616747500,4.26374755859375,0.01695101149380207,0.012216945178806782,0.03817795217037201
1731409786626552000,4.273552001953125,0.01695101149380207,0.01710372418165207,0.0393996499478817
1731409786636357600,4.283357666015625,0.01572931744158268,0.021990500390529633,0.04184303805232048
1731409786646163700,4.293163818359375,0.013285927474498749,0.023212196305394173,0.046729814261198044
1731409786655969000,4.302968994140625,0.009620844386518002,0.01832541823387146,0.051616594195365906
1731409786665773600,4.312773681640625,0.012064233422279358,0.01588202826678753,0.0528382882475853
1731409786675579000,4.322578857421875,0.019394399598240852,0.014660334214568138,0.049173206090927124
1731409786685385000,4.332385009765625,0.025502873584628105,0.008551862090826035,0.04306473210453987
1731409786695190500,4.3421904296875,0.025502873584628105,0,0.03573456406593323
1731409786704994800,4.351994873046875,0.021837789565324783,-0.012216945178806782,0.027182703837752342
1731409786714800400,4.36180029296875,0.021837789565324783,-0.01588202826678753,0.017409147694706917
1731409786724606500,4.3716064453125,0.021837789565324783,-0.008551862090826035,0.013744063675403595
1731409786734411800,4.381411865234375,0.020616095513105392,-0.006108472589403391,0.01252236869186163
1731409786744216300,4.39121630859375,0.019394399598240852,-0.014660334214568138,0.010078979656100273
1731409786754021600,4.401021728515625,0.024281177669763565,-0.026877280324697495,-0.0009162708884105086
1731409786763828000,4.410827880859375,0.029167955741286278,-0.03665083646774292,-0.016798298805952072
1731409786773633300,4.42063330078125,0.0328330397605896,-0.04153761267662048,-0.027793550863862038
1731409786783437800,4.430437744140625,0.03405473381280899,-0.04031591862440109,-0.02901524491608143
1731409786793243100,4.4402431640625,0.03161134570837021,-0.03665083646774292,-0.024128466844558716
1731409786803049200,4.45004931640625,0.024281177669763565,-0.030542362481355667,-0.020463382825255394
1731409786812854800,4.459854736328125,0.019394399598240852,-0.021990500390529633,-0.024128466844558716
1731409786822659000,4.4696591796875,0.019394399598240852,-0.01710372418165207,-0.037567105144262314
1731409786832464600,4.479464599609375,0.021837789565324783,-0.021990500390529633,-0.05100574716925621
1731409786842270700,4.489270751953125,0.021837789565324783,-0.03787253051996231,-0.058335911482572556
1731409786852076000,4.499075927734375,0.023059483617544174,-0.05497625470161438,-0.058335911482572556
1731409786861880600,4.508880615234375,0.025502873584628105,-0.0525328628718853,-0.05344913527369499
1731409786871686000,4.518685791015625,0.025502873584628105,-0.03176405653357506,-0.04489727318286896
1731409786881492200,4.5284921875,0.019394399598240852,-0.006108472589403391,-0.03268032893538475
1731409786891297500,4.538297607421875,0.012064233422279358,0.010995250195264816,-0.020463382825255394
1731409786901102000,4.54810205078125,0.007177455350756645,0.01710372418165207,-0.011911521665751934
1731409786910907400,4.557907470703125,0.005955760832875967,0.01832541823387146,-0.007024743594229221
1731409786920713500,4.56771337890625,0.007177455350756645,0.021990500390529633,-0.008246437646448612
1731409786930518800,4.577518798828125,0.009620844386518002,0.02076880633831024,-0.015576604753732681
1731409786940323300,4.5873232421875,0.007177455350756645,0.012216945178806782,-0.026571854948997498
1731409786950129000,4.59712890625,-0.00015271181473508477,-0.0036650835536420345,-0.040010496973991394
1731409786959935000,4.60693505859375,-0.006261184345930815,-0.02076880633831024,-0.04978405311703682
1731409786969740300,4.616740234375,-0.00992626789957285,-0.029320668429136276,-0.04978405311703682
1731409786979544800,4.626544921875,-0.00992626789957285,-0.014660334214568138,-0.04489727318286896
1731409786989350100,4.63635009765625,-0.0050394898280501366,0.013438640162348747,-0.037567105144262314
1731409786999156200,4.64615625,-0.006261184345930815,0.029320668429136276,-0.03390202298760414
1731409787008961800,4.6559619140625,-0.014813045971095562,0.025655584409832954,-0.040010496973991394
1731409787018766300,4.665766357421875,-0.02214321307837963,0.012216945178806782,-0.04978405311703682
1731409787028571600,4.675571533203125,-0.025808297097682953,0.0036650835536420345,-0.055892523378133774
1731409787038377700,4.685377685546875,-0.025808297097682953,0.004886778071522713,-0.055892523378133774
1731409787048183000,4.69518310546875,-0.01847812905907631,0.004886778071522713,-0.05100574716925621
1731409787057987600,4.704987548828125,-0.016034740954637527,-0.0036650835536420345,-0.0522274412214756
1731409787067793000,4.71479296875,-0.014813045971095562,-0.02076880633831024,-0.058335911482572556
1731409787077599200,4.72459912109375,-0.01847812905907631,-0.029320668429136276,-0.060779303312301636
1731409787087404500,4.734404541015625,-0.01847812905907631,-0.01832541823387146,-0.057114217430353165
1731409787097209000,4.744208984375,-0.012369656935334206,0.012216945178806782,-0.04734066128730774
1731409787107014400,4.754014404296875,-0.013591351918876171,0.04031591862440109,-0.03390202298760414
1731409787116820500,4.763820556640625,-0.016034740954637527,0.05008947476744652,-0.024128466844558716
1731409787126625800,4.773625732421875,-0.01847812905907631,0.03787253051996231,-0.024128466844558716
1731409787136430300,4.783430419921875,-0.01847812905907631,0.02076880633831024,-0.03268032893538475
1731409787146236000,4.79323583984375,-0.01725643500685692,0.012216945178806782,-0.037567105144262314
1731409787156042000,4.8030419921875,-0.007482878863811493,0.014660334214568138,-0.037567105144262314
1731409787165847300,4.812847412109375,0.0010689827613532543,0.02076880633831024,-0.03268032893538475
1731409787175651800,4.82265185546875,0.005955760832875967,0.021990500390529633,-0.03145863488316536
1731409787185457200,4.83245703125,0.005955760832875967,0.01588202826678753,-0.03145863488316536
1731409787195263500,4.842263427734375,-0.00015271181473508477,0.014660334214568138,-0.03023693896830082
1731409787205068800,4.85206884765625,-0.007482878863811493,0.024433890357613564,-0.022906772792339325
1731409787214873000,4.861873046875,-0.00992626789957285,0.04031591862440109,-0.013133215717971325
1731409787224678700,4.8716787109375,-0.0038177953101694584,0.046424392610788345,-0.003359660040587187
1731409787234484700,4.881484619140625,0.005955760832875967,0.043981000781059265,-0.0009162708884105086
1731409787244290000,4.8912900390625,0.012064233422279358,0.03298575058579445,-0.008246437646448612
1731409787254094600,4.901094482421875,0.014507622458040714,0.023212196305394173,-0.016798298805952072
1731409787263900000,4.91089990234375,0.010842538438737392,0.021990500390529633,-0.015576604753732681
1731409787273706200,4.920706298828125,0.005955760832875967,0.025655584409832954,-0.004581354558467865
1731409787283511600,4.930511474609375,-0.001374406274408102,0.03665083646774292,0.006413896102458239
1731409787293316000,4.940316162109375,-0.0050394898280501366,0.04886778071522713,0.007635590620338917
1731409787303121400,4.950121337890625,-0.0050394898280501366,0.047646086663007736,-0.007024743594229221
1731409787312927500,4.959927490234375,0.0035123717971146107,0.026877280324697495,-0.026571854948997498
1731409787322732800,4.96973291015625,0.014507622458040714,-0.004886778071522713,-0.041232191026210785
1731409787332537300,4.979537353515625,0.01695101149380207,-0.030542362481355667,-0.04856235533952713
1731409787342343000,4.989343017578125,0.01817270554602146,-0.03787253051996231,-0.05344913527369499
1731409787352149000,4.99914892578125,0.01572931744158268,-0.030542362481355667,-0.0522274412214756
1731409787361954300,5.008954345703125,0.014507622458040714,-0.010995250195264816,-0.04367557913064957
1731409787371758800,5.0187587890625,0.007177455350756645,0.006108472589403391,-0.02901524491608143
1731409787381564200,5.028564208984375,-0.006261184345930815,0.0024433890357613564,-0.016798298805952072
1731409787391370200,5.038370361328125,-0.016034740954637527,-0.008551862090826035,-0.011911521665751934
1731409787401175600,5.048175537109375,-0.01725643500685692,-0.009773556143045425,-0.010689826682209969
1731409787410980000,5.05797998046875,-0.0050394898280501366,-0.004886778071522713,-0.011911521665751934
1731409787420785700,5.06778564453125,0.005955760832875967,-0.004886778071522713,-0.01435491070151329
1731409787430591700,5.077591796875,0.013285927474498749,-0.012216945178806782,-0.018019994720816612
1731409787440397000,5.08739697265625,0.012064233422279358,-0.021990500390529633,-0.018019994720816612
1731409787450201600,5.09720166015625,0.0022906772792339325,-0.01832541823387146,-0.011911521665751934
1731409787460007000,5.1070068359375,-0.0038177953101694584,-0.004886778071522713,0.0015271181473508477
1731409787469813000,5.11681298828125,-0.00992626789957285,0.012216945178806782,0.016187451779842377
1731409787479618300,5.126618408203125,-0.011147962883114815,0.021990500390529633,0.02351761981844902
1731409787489422800,5.1364228515625,-0.00992626789957285,0.01832541823387146,0.02473931387066841
1731409787499228400,5.146228515625,-0.007482878863811493,0.007330167107284069,0.025961007922887802
1731409787509034500,5.156034423828125,-0.00259610079228878,0.004886778071522713,0.030847785994410515
1731409787518839800,5.16583984375,-0.001374406274408102,0.008551862090826035,0.04062134400010109
1731409787528644400,5.175644287109375,-0.0050394898280501366,0.01588202826678753,0.049173206090927124
1731409787538449700,5.18544970703125,-0.00992626789957285,0.01954711228609085,0.05650337040424347
1731409787548255700,5.195255859375,-0.01725643500685692,0.024433890357613564,0.05405998229980469
1731409787558061000,5.20506103515625,-0.01969982497394085,0.029320668429136276,0.047951508313417435
1731409787567865600,5.214865478515625,-0.01847812905907631,0.03176405653357506,0.03695625811815262
1731409787577671200,5.224671142578125,-0.014813045971095562,0.024433890357613564,0.025961007922887802
1731409787587477200,5.234477294921875,-0.012369656935334206,0.010995250195264816,0.01252236869186163
1731409787597282600,5.244282470703125,-0.011147962883114815,0.0036650835536420345,0.002748812548816204
1731409787607087000,5.254087158203125,-0.006261184345930815,0.004886778071522713,-0.0021379655227065086
1731409787616892400,5.263892333984375,-0.0038177953101694584,0.012216945178806782,-0.0021379655227065086
1731409787626698500,5.273698486328125,0.0022906772792339325,0.01588202826678753,-0.0009162708884105086
1731409787636504000,5.283504150390625,0.0035123717971146107,0.004886778071522713,-0.005803049076348543
1731409787646308400,5.293308349609375,0.0035123717971146107,-0.010995250195264816,-0.016798298805952072
1731409787656114000,5.303114013671875,0.004734066314995289,-0.024433890357613564,-0.03023693896830082
1731409787665920000,5.312919921875,0.005955760832875967,-0.03176405653357506,-0.038788799196481705
1731409787675725300,5.322725341796875,0.008399149402976036,-0.03298575058579445,-0.040010496973991394
1731409787685529900,5.33252978515625,0.005955760832875967,-0.03298575058579445,-0.038788799196481705
1731409787695335200,5.342335205078125,0.007177455350756645,-0.03176405653357506,-0.03634541109204292
1731409787705141200,5.352141357421875,0.009620844386518002,-0.025655584409832954,-0.03512371703982353
1731409787714946800,5.36194677734375,0.013285927474498749,-0.01954711228609085,-0.037567105144262314
1731409787724751000,5.371751220703125,0.01817270554602146,-0.012216945178806782,-0.04367557913064957
1731409787734556700,5.381556640625,0.023059483617544174,-0.008551862090826035,-0.041232191026210785
1731409787744362800,5.39136279296875,0.019394399598240852,-0.010995250195264816,-0.03268032893538475
1731409787754168000,5.40116796875,0.009620844386518002,-0.013438640162348747,-0.025350160896778107
1731409787763972600,5.41097265625,0.0035123717971146107,-0.010995250195264816,-0.025350160896778107
1731409787773778000,5.42077783203125,0.008399149402976036,-0.0036650835536420345,-0.037567105144262314
1731409787783584000,5.430583984375,0.01695101149380207,-0.004886778071522713,-0.04856235533952713
1731409787793389300,5.440389404296875,0.020616095513105392,-0.026877280324697495,-0.04856235533952713
1731409787803193900,5.45019384765625,0.01817270554602146,-0.0525328628718853,-0.04489727318286896
1731409787812999400,5.45999951171875,0.01817270554602146,-0.05008947476744652,-0.038788799196481705
1731409787822805500,5.469805419921875,0.019394399598240852,-0.01954711228609085,-0.02901524491608143
1731409787832610800,5.47961083984375,0.020616095513105392,0.01588202826678753,-0.013133215717971325
1731409787842415400,5.489415283203125,0.019394399598240852,0.03176405653357506,-0.0021379655227065086
1731409787852220700,5.499220703125,0.01572931744158268,0.024433890357613564,-0.003359660040587187
1731409787862026800,5.50902685546875,0.01695101149380207,0.006108472589403391,-0.01435491070151329
1731409787871832000,5.51883203125,0.01817270554602146,-0.008551862090826035,-0.022906772792339325
1731409787881636600,5.52863671875,0.019394399598240852,-0.010995250195264816,-0.026571854948997498
1731409787891442200,5.538442138671875,0.01695101149380207,-0.0024433890357613564,-0.024128466844558716
1731409787901248300,5.548248291015625,0.01572931744158268,0.008551862090826035,-0.019241688773036003
1731409787911053600,5.558053466796875,0.009620844386518002,0.013438640162348747,-0.013133215717971325
1731409787920858000,5.567858154296875,0.005955760832875967,0.01588202826678753,-0.008246437646448612
1731409787930663400,5.577663330078125,0.004734066314995289,0.013438640162348747,-0.005803049076348543
1731409787940469500,5.587469482421875,0.005955760832875967,0.013438640162348747,-0.005803049076348543
1731409787950274800,5.59727490234375,0.004734066314995289,0.01710372418165207,-0.005803049076348543
1731409787960079400,5.607079345703125,-0.001374406274408102,0.021990500390529633,-0.003359660040587187
1731409787969884700,5.616884765625,-0.006261184345930815,0.023212196305394173,-0.0021379655227065086
1731409787979691000,5.62669091796875,-0.00992626789957285,0.01832541823387146,-0.004581354558467865
1731409787989496300,5.636496337890625,-0.008704573847353458,0.008551862090826035,-0.011911521665751934
1731409787999300900,5.64630078125,-0.0038177953101694584,-0.004886778071522713,-0.020463382825255394
1731409788009106200,5.656106201171875,-0.00015271181473508477,-0.01588202826678753,-0.024128466844558716
1731409788018912300,5.665912353515625,-0.001374406274408102,-0.01954711228609085,-0.022906772792339325
1731409788028717600,5.675717529296875,-0.00259610079228878,-0.012216945178806782,-0.018019994720816612
1731409788038522000,5.685522216796875,-0.00015271181473508477,0.0012216945178806782,-0.009468132629990578
1731409788048327400,5.695327392578125,-0.00015271181473508477,0.007330167107284069,-0.0009162708884105086
1731409788058133500,5.705133544921875,-0.00015271181473508477,0.004886778071522713,0.0015271181473508477
1731409788067939000,5.71493896484375,-0.0050394898280501366,0,0.00030542362947016954
1731409788077743400,5.724743408203125,-0.007482878863811493,-0.006108472589403391,-0.0021379655227065086
1731409788087549000,5.734548828125,-0.007482878863811493,-0.0024433890357613564,-0.004581354558467865
1731409788097355000,5.74435498046875,-0.0038177953101694584,0,-0.003359660040587187
1731409788107160300,5.754160400390625,0.0010689827613532543,-0.0012216945178806782,-0.003359660040587187
1731409788116964900,5.76396484375,0.0022906772792339325,-0.007330167107284069,-0.008246437646448612
1731409788126770200,5.773770263671875,0.004734066314995289,-0.012216945178806782,-0.010689826682209969
1731409788136576300,5.783576171875,0.005955760832875967,-0.01588202826678753,-0.013133215717971325
1731409788146381800,5.7933818359375,0.007177455350756645,-0.013438640162348747,-0.011911521665751934
1731409788156186000,5.80318603515625,0.005955760832875967,-0.008551862090826035,-0.008246437646448612
1731409788165991400,5.812991455078125,0.0035123717971146107,-0.0036650835536420345,-0.008246437646448612
1731409788175797800,5.8227978515625,0.0035123717971146107,-0.0012216945178806782,-0.011911521665751934
1731409788185603000,5.83260302734375,0.004734066314995289,-0.0024433890357613564,-0.016798298805952072
1731409788195407600,5.84240771484375,0.010842538438737392,-0.0024433890357613564,-0.027793550863862038
1731409788205213000,5.852212890625,0.01695101149380207,-0.0024433890357613564,-0.037567105144262314
1731409788215019000,5.86201904296875,0.01817270554602146,-0.007330167107284069,-0.040010496973991394
1731409788224824300,5.87182421875,0.014507622458040714,-0.02076880633831024,-0.03634541109204292
1731409788234628900,5.88162890625,0.008399149402976036,-0.03176405653357506,-0.03634541109204292
1731409788244434200,5.89143408203125,0.008399149402976036,-0.029320668429136276,-0.04611896723508835
1731409788254240500,5.901240478515625,0.01572931744158268,-0.023212196305394173,-0.05467082932591438
1731409788264045800,5.9110458984375,0.019394399598240852,-0.02076880633831024,-0.058335911482572556
1731409788273850400,5.920850341796875,0.01817270554602146,-0.024433890357613564,-0.055892523378133774
1731409788283655700,5.93065576171875,0.014507622458040714,-0.029320668429136276,-0.05467082932591438
1731409788293461800,5.940461669921875,0.012064233422279358,-0.029320668429136276,-0.05467082932591438
1731409788303267000,5.95026708984375,0.01572931744158268,-0.02076880633831024,-0.04856235533952713
1731409788313071600,5.960071533203125,0.01572931744158268,-0.007330167107284069,-0.040010496973991394
1731409788322877000,5.969876953125,0.01572931744158268,0.006108472589403391,-0.03145863488316536
1731409788332683000,5.97968310546875,0.014507622458040714,0.006108472589403391,-0.021685076877474785
1731409788342488300,5.98948828125,0.012064233422279358,0,-0.018019994720816612
1731409788352292900,5.99929296875,0.012064233422279358,-0.004886778071522713,-0.018019994720816612
1731409788362098400,6.009098388671875,0.012064233422279358,-0.0036650835536420345,-0.020463382825255394
1731409788371904500,6.018904541015625,0.013285927474498749,0.0012216945178806782,-0.021685076877474785
1731409788381709800,6.028709716796875,0.012064233422279358,0.004886778071522713,-0.025350160896778107
1731409788391514400,6.038514404296875,0.01695101149380207,0.007330167107284069,-0.03145863488316536
1731409788401319700,6.048319580078125,0.01817270554602146,0.004886778071522713,-0.038788799196481705
1731409788411125800,6.058125732421875,0.01572931744158268,-0.0036650835536420345,-0.041232191026210785
1731409788420931000,6.06793115234375,0.012064233422279358,-0.004886778071522713,-0.03634541109204292
1731409788430735600,6.077735595703125,0.012064233422279358,0.007330167107284069,-0.027793550863862038
1731409788440541000,6.087541015625,0.012064233422279358,0.023212196305394173,-0.018019994720816612
1731409788450347000,6.097346923828125,0.007177455350756645,0.02076880633831024,-0.013133215717971325
1731409788460152300,6.10715234375,-0.00015271181473508477,0.008551862090826035,-0.018019994720816612
1731409788469956900,6.116956787109375,-0.00015271181473508477,0,-0.025350160896778107
1731409788479762400,6.126762451171875,0.0022906772792339325,-0.0036650835536420345,-0.03023693896830082
1731409788489568500,6.136568603515625,0.005955760832875967,-0.0012216945178806782,-0.027793550863862038
1731409788499373800,6.146373779296875,0.009620844386518002,0.007330167107284069,-0.021685076877474785
1731409788509178400,6.156178466796875,0.009620844386518002,0.013438640162348747,-0.01435491070151329
1731409788518983700,6.165983642578125,0.004734066314995289,0.007330167107284069,-0.009468132629990578
1731409788528789800,6.175789794921875,-0.00259610079228878,-0.006108472589403391,-0.009468132629990578
1731409788538595000,6.185594970703125,-0.008704573847353458,-0.01710372418165207,-0.01435491070151329
1731409788548399600,6.195399658203125,-0.00992626789957285,-0.01954711228609085,-0.018019994720816612
1731409788558205000,6.205204833984375,-0.006261184345930815,-0.01710372418165207,-0.022906772792339325
1731409788568011000,6.215010986328125,-0.00259610079228878,-0.009773556143045425,-0.03023693896830082
1731409788577816300,6.22481640625,-0.00015271181473508477,-0.010995250195264816,-0.037567105144262314
1731409788587620900,6.234620849609375,-0.00015271181473508477,-0.01954711228609085,-0.04489727318286896
1731409788597426400,6.244426513671875,-0.00259610079228878,-0.030542362481355667,-0.05100574716925621
1731409788607232500,6.254232421875,-0.001374406274408102,-0.042759306728839874,-0.0522274412214756
1731409788617037800,6.264037841796875,0.0022906772792339325,-0.046424392610788345,-0.05100574716925621
1731409788626842400,6.27384228515625,0.005955760832875967,-0.0390942245721817,-0.04489727318286896
1731409788636647700,6.283647705078125,0.009620844386518002,-0.029320668429136276,-0.040010496973991394
1731409788646453800,6.293453857421875,0.007177455350756645,-0.03176405653357506,-0.03634541109204292
1731409788656259000,6.303259033203125,0.0022906772792339325,-0.04031591862440109,-0.040010496973991394
1731409788666063600,6.313063720703125,0.005955760832875967,-0.04153761267662048,-0.04489727318286896
1731409788675869000,6.322868896484375,0.009620844386518002,-0.03420744836330414,-0.04367557913064957
1731409788685675300,6.33267529296875,0.012064233422279358,-0.025655584409832954,-0.03390202298760414
1731409788695480600,6.34248046875,0.012064233422279358,-0.023212196305394173,-0.021685076877474785
1731409788705284900,6.352284912109375,0.010842538438737392,-0.025655584409832954,-0.01435491070151329
1731409788715090400,6.36209033203125,0.012064233422279358,-0.026877280324697495,-0.019241688773036003
1731409788724896500,6.371896484375,0.010842538438737392,-0.026877280324697495,-0.03512371703982353
1731409788734701800,6.381701904296875,0.010842538438737392,-0.03298575058579445,-0.04856235533952713
1731409788744506400,6.39150634765625,0.013285927474498749,-0.03542914241552353,-0.05100574716925621
1731409788754311700,6.401311767578125,0.01695101149380207,-0.03420744836330414,-0.04734066128730774
1731409788764117800,6.41111767578125,0.019394399598240852,-0.03176405653357506,-0.042453885078430176
1731409788773923000,6.420923095703125,0.01817270554602146,-0.025655584409832954,-0.041232191026210785
1731409788783727600,6.4307275390625,0.01572931744158268,-0.010995250195264816,-0.03634541109204292
1731409788793533000,6.440532958984375,0.010842538438737392,0,-0.02901524491608143
1731409788803339000,6.450339111328125,0.0022906772792339325,0.010995250195264816,-0.020463382825255394
1731409788813144300,6.460144287109375,-0.00259610079228878,0.025655584409832954,-0.013133215717971325
1731409788822948900,6.469948974609375,-0.006261184345930815,0.0390942245721817,-0.005803049076348543
1731409788832754200,6.479754150390625,-0.00992626789957285,0.043981000781059265,-0.004581354558467865
1731409788842560500,6.489560546875,-0.012369656935334206,0.04031591862440109,-0.004581354558467865
1731409788852365800,6.49936572265625,-0.014813045971095562,0.03665083646774292,-0.005803049076348543
1731409788862170400,6.50917041015625,-0.012369656935334206,0.04031591862440109,-0.008246437646448612
1731409788871975700,6.5189755859375,-0.013591351918876171,0.045202698558568954,-0.011911521665751934
1731409788881781800,6.52878173828125,-0.01969982497394085,0.05008947476744652,-0.01435491070151329
1731409788891587000,6.538587158203125,-0.025808297097682953,0.0525328628718853,-0.01435491070151329
1731409788901391600,6.5483916015625,-0.028251685202121735,0.05375456064939499,-0.018019994720816612
1731409788911197000,6.558197021484375,-0.024586603045463562,0.045202698558568954,-0.026571854948997498
1731409788921003000,6.5680029296875,-0.023364907130599022,0.03298575058579445,-0.037567105144262314
1731409788930808300,6.577808349609375,-0.024586603045463562,0.021990500390529633,-0.04611896723508835
1731409788940612900,6.58761279296875,-0.029473381116986275,0.012216945178806782,-0.04978405311703682
1731409788950418200,6.597418212890625,-0.024586603045463562,0.009773556143045425,-0.05344913527369499
1731409788960224300,6.607224365234375,-0.02092151902616024,0.010995250195264816,-0.0522274412214756
1731409788970029800,6.61702978515625,-0.01847812905907631,0.008551862090826035,-0.05100574716925621
1731409788979834000,6.626834228515625,-0.016034740954637527,0.006108472589403391,-0.04856235533952713
1731409788989639700,6.6366396484375,-0.00992626789957285,0.0036650835536420345,-0.04611896723508835
1731409788999445800,6.64644580078125,-0.008704573847353458,0,-0.042453885078430176
1731409789009251000,6.6562509765625,-0.006261184345930815,-0.0024433890357613564,-0.038788799196481705
1731409789019055600,6.6660556640625,-0.006261184345930815,-0.009773556143045425,-0.03634541109204292
1731409789028861000,6.67586083984375,-0.0050394898280501366,-0.01832541823387146,-0.037567105144262314
1731409789038667000,6.6856669921875,-0.006261184345930815,-0.021990500390529633,-0.03634541109204292
1731409789048472300,6.695472412109375,-0.006261184345930815,-0.012216945178806782,-0.027793550863862038
1731409789058276900,6.70527685546875,-0.008704573847353458,0,-0.018019994720816612
1731409789068082200,6.715082275390625,-0.00992626789957285,0.006108472589403391,-0.009468132629990578
1731409789077888300,6.72488818359375,-0.012369656935334206,0.006108472589403391,-0.005803049076348543
1731409789087693600,6.734693603515625,-0.012369656935334206,0.006108472589403391,-0.0009162708884105086
1731409789097498000,6.744498046875,-0.013591351918876171,0.006108472589403391,0.003970507066696882
1731409789107303400,6.754303466796875,-0.011147962883114815,0.009773556143045425,0.011300674639642239
1731409789117109500,6.764109619140625,-0.011147962883114815,0.012216945178806782,0.02229592576622963
1731409789126915000,6.7739150390625,-0.011147962883114815,0.01832541823387146,0.025961007922887802
1731409789136719400,6.78371923828125,-0.00992626789957285,0.024433890357613564,0.02107422985136509
1731409789146525000,6.79352490234375,-0.0050394898280501366,0.026877280324697495,0.013744063675403595
1731409789156331000,6.8033310546875,-0.0050394898280501366,0.024433890357613564,0.011300674639642239
1731409789166136300,6.81313623046875,-0.00015271181473508477,0.01954711228609085,0.011300674639642239
1731409789175940900,6.82294091796875,0.0035123717971146107,0.01588202826678753,0.011300674639642239
1731409789185746200,6.83274609375,0.0022906772792339325,0.013438640162348747,0.00519220158457756
1731409789195552300,6.84255224609375,0.0022906772792339325,0.008551862090826035,-0.004581354558467865
1731409789205357600,6.852357666015625,0.0022906772792339325,-0.0012216945178806782,-0.013133215717971325
1731409789215162000,6.862162109375,0.004734066314995289,-0.010995250195264816,-0.01435491070151329
1731409789224967400,6.871967529296875,0.008399149402976036,-0.013438640162348747,-0.010689826682209969
1731409789234773500,6.8817734375,0.007177455350756645,-0.0012216945178806782,-0.0021379655227065086
1731409789244578800,6.891578857421875,0.005955760832875967,0.02076880633831024,0.013744063675403595
1731409789254383400,6.90138330078125,0.007177455350756645,0.03787253051996231,0.03451287001371384
1731409789264188700,6.911188720703125,0.004734066314995289,0.043981000781059265,0.050394900143146515
1731409789273994800,6.920994873046875,-0.00015271181473508477,0.03665083646774292,0.05772506445646286
1731409789283800000,6.930800048828125,-0.00015271181473508477,0.025655584409832954,0.05405998229980469
1731409789293604600,6.9406044921875,-0.00015271181473508477,0.01588202826678753,0.046729814261198044
1731409789303410000,6.950409912109375,-0.001374406274408102,0.007330167107284069,0.04062134400010109
1731409789313216300,6.96021630859375,-0.00259610079228878,0,0.03573456406593323
1731409789323021600,6.970021484375,-0.00259610079228878,-0.006108472589403391,0.03451287001371384
1731409789332825900,6.979825927734375,-0.00015271181473508477,-0.0024433890357613564,0.03451287001371384
1731409789342631400,6.98963134765625,-0.00015271181473508477,-0.0012216945178806782,0.03573456406593323
1731409789352437500,6.9994375,0.0010689827613532543,-0.004886778071522713,0.03573456406593323
1731409789362242800,7.009242919921875,-0.0038177953101694584,-0.007330167107284069,0.03573456406593323
1731409789372047400,7.01904736328125,-0.0050394898280501366,-0.006108472589403391,0.03573456406593323
1731409789381852700,7.028852783203125,-0.006261184345930815,-0.0036650835536420345,0.03573456406593323
1731409789391658800,7.03865869140625,-0.008704573847353458,-0.004886778071522713,0.032069481909275055
1731409789401464000,7.048464111328125,-0.00992626789957285,-0.010995250195264816,0.025961007922887802
1731409789411268600,7.0582685546875,-0.011147962883114815,-0.01710372418165207,0.018630841746926308
1731409789421074000,7.068073974609375,-0.007482878863811493,-0.026877280324697495,0.013744063675403595
1731409789430880000,7.0778798828125,-0.00259610079228878,-0.03420744836330414,0.008857285603880882
1731409789440685300,7.087685302734375,-0.001374406274408102,-0.03787253051996231,0.002748812548816204
1731409789450489900,7.09748974609375,-0.001374406274408102,-0.03542914241552353,0.00030542362947016954
1731409789460295200,7.107295166015625,-0.0038177953101694584,-0.029320668429136276,0.0015271181473508477
1731409789470101500,7.1171015625,-0.00992626789957285,-0.021990500390529633,0.003970507066696882
1731409789479906800,7.12690673828125,-0.014813045971095562,-0.01588202826678753,0.007635590620338917
1731409789489711000,7.136711181640625,-0.01725643500685692,-0.010995250195264816,0.011300674639642239
1731409789499516400,7.146516357421875,-0.016034740954637527,-0.012216945178806782,0.014965757727622986
1731409789509322800,7.15632275390625,-0.012369656935334206,-0.02076880633831024,0.013744063675403595
1731409789519128000,7.166128173828125,-0.007482878863811493,-0.026877280324697495,0.007635590620338917
1731409789528932600,7.1759326171875,-0.00259610079228878,-0.026877280324697495,0.00030542362947016954
1731409789538738000,7.185738037109375,-0.00259610079228878,-0.023212196305394173,-0.0021379655227065086
1731409789548544000,7.1955439453125,-0.0038177953101694584,-0.01832541823387146,-0.0021379655227065086
1731409789558349300,7.205349365234375,-0.007482878863811493,-0.012216945178806782,0.00030542362947016954
1731409789568153900,7.21515380859375,-0.011147962883114815,-0.0024433890357613564,0.002748812548816204
1731409789577959200,7.224959228515625,-0.007482878863811493,0,0.006413896102458239
1731409789587765200,7.23476513671875,-0.0050394898280501366,-0.009773556143045425,0.006413896102458239
1731409789597570600,7.244570556640625,-0.001374406274408102,-0.01832541823387146,-0.0009162708884105086
1731409789607375000,7.254375,-0.00015271181473508477,-0.014660334214568138,-0.013133215717971325
1731409789617180400,7.264180419921875,-0.00259610079228878,-0.004886778071522713,-0.013133215717971325
1731409789626986500,7.273986572265625,-0.00015271181473508477,0.0012216945178806782,-0.004581354558467865
1731409789636791800,7.283791748046875,-0.00015271181473508477,0.0036650835536420345,-0.0009162708884105086
1731409789646596400,7.293596435546875,-0.00015271181473508477,-0.0012216945178806782,-0.01435491070151329
1731409789656401700,7.303401611328125,-0.00015271181473508477,-0.013438640162348747,-0.037567105144262314
1731409789666207700,7.313207763671875,0.004734066314995289,-0.03176405653357506,-0.05467082932591438
1731409789676013000,7.323012939453125,0.008399149402976036,-0.042759306728839874,-0.059557609260082245
1731409789685817600,7.332817626953125,0.012064233422279358,-0.042759306728839874,-0.04978405311703682
1731409789695623000,7.342622802734375,0.012064233422279358,-0.03176405653357506,-0.03390202298760414
1731409789705429000,7.352428955078125,0.010842538438737392,-0.0036650835536420345,-0.016798298805952072
1731409789715234600,7.362234619140625,0.005955760832875967,0.01832541823387146,0.003970507066696882
1731409789725038800,7.372038818359375,0.0035123717971146107,0.023212196305394173,0.016187451779842377
1731409789734844400,7.381844482421875,0.0022906772792339325,0.01588202826678753,0.018630841746926308
1731409789744650500,7.391650390625,0.0010689827613532543,0.006108472589403391,0.018630841746926308
1731409789754455800,7.401455810546875,0.004734066314995289,0.0036650835536420345,0.018630841746926308
1731409789764260000,7.411260009765625,0.009620844386518002,0.0036650835536420345,0.018630841746926308
1731409789774065700,7.421065673828125,0.013285927474498749,0.0012216945178806782,0.016187451779842377
1731409789783871700,7.430871826171875,0.01572931744158268,-0.004886778071522713,0.008857285603880882
1731409789793677000,7.440677001953125,0.021837789565324783,-0.0036650835536420345,0.0015271181473508477
1731409789803481600,7.450481689453125,0.026724567636847496,0.0024433890357613564,0.00030542362947016954
1731409789813287000,7.460286865234375,0.025502873584628105,0.007330167107284069,0.006413896102458239
1731409789823093000,7.470093017578125,0.020616095513105392,0.010995250195264816,0.013744063675403595
1731409789832898300,7.479898193359375,0.01695101149380207,0.010995250195264816,0.018630841746926308
1731409789842702800,7.489702880859375,0.013285927474498749,0.007330167107284069,0.02473931387066841
1731409789852508200,7.499508056640625,0.009620844386518002,0,0.030847785994410515
1731409789862314200,7.509314208984375,0.005955760832875967,-0.0012216945178806782,0.033291175961494446
1731409789872119600,7.51911962890625,0.0022906772792339325,-0.0012216945178806782,0.033291175961494446
1731409789881924000,7.528924072265625,0.0022906772792339325,-0.0012216945178806782,0.030847785994410515
1731409789891729400,7.5387294921875,0.0010689827613532543,0,0.027182703837752342
1731409789901535500,7.548535400390625,0.0035123717971146107,0,0.02229592576622963
1731409789911340800,7.5583408203125,0.005955760832875967,-0.008551862090826035,0.016187451779842377
1731409789921145300,7.568145263671875,0.005955760832875967,-0.01832541823387146,0.008857285603880882
1731409789930950700,7.57795068359375,0.007177455350756645,-0.01954711228609085,0.00519220158457756
1731409789940756700,7.5877568359375,0.010842538438737392,-0.01588202826678753,0.008857285603880882
1731409789950562000,7.59756201171875,0.012064233422279358,-0.0036650835536420345,0.014965757727622986
1731409789960366600,7.60736669921875,0.012064233422279358,0.006108472589403391,0.018630841746926308
1731409789970172000,7.617171875,0.012064233422279358,0.0012216945178806782,0.016187451779842377
1731409789979978000,7.62697802734375,0.010842538438737392,-0.008551862090826035,0.010078979656100273
1731409789989783300,7.636783203125,0.01572931744158268,-0.01588202826678753,0.006413896102458239
1731409789999587800,7.646587890625,0.01817270554602146,-0.014660334214568138,0.003970507066696882
1731409790009393200,7.65639306640625,0.01572931744158268,-0.007330167107284069,0.007635590620338917
1731409790019199200,7.66619921875,0.010842538438737392,-0.0012216945178806782,0.013744063675403595
1731409790029004500,7.676004638671875,0.009620844386518002,0.0036650835536420345,0.017409147694706917
1731409790038809000,7.68580908203125,0.005955760832875967,0.006108472589403391,0.02107422985136509
1731409790048614400,7.695614501953125,0.010842538438737392,0.008551862090826035,0.02107422985136509
1731409790058420700,7.705420654296875,0.012064233422279358,0.008551862090826035,0.013744063675403595
1731409790068226000,7.71522607421875,0.01695101149380207,0.010995250195264816,0.00030542362947016954
1731409790078030300,7.7250302734375,0.01817270554602146,0.013438640162348747,-0.005803049076348543
1731409790087836000,7.7348359375,0.019394399598240852,0.010995250195264816,-0.0021379655227065086
1731409790097642000,7.74464208984375,0.01695101149380207,0.0036650835536420345,0.002748812548816204
1731409790107447300,7.754447265625,0.010842538438737392,-0.004886778071522713,-0.0009162708884105086
1731409790117251600,7.76425146484375,0.008399149402976036,-0.012216945178806782,-0.018019994720816612
1731409790127057200,7.77405712890625,0.008399149402976036,-0.01832541823387146,-0.03268032893538475
1731409790136863200,7.78386328125,0.009620844386518002,-0.025655584409832954,-0.03268032893538475
1731409790146668500,7.79366845703125,0.013285927474498749,-0.03176405653357506,-0.03023693896830082
1731409790156473000,7.80347314453125,0.01572931744158268,-0.030542362481355667,-0.02901524491608143
1731409790166278400,7.8132783203125,0.014507622458040714,-0.01832541823387146,-0.025350160896778107
1731409790176084500,7.82308447265625,0.008399149402976036,0.0012216945178806782,-0.013133215717971325
1731409790185889800,7.832889892578125,0.0035123717971146107,0.01710372418165207,0.002748812548816204
1731409790195694300,7.8426943359375,0.0010689827613532543,0.025655584409832954,0.01252236869186163
1731409790205499600,7.852499755859375,-0.0038177953101694584,0.026877280324697495,0.014965757727622986
1731409790215305700,7.8623056640625,-0.0050394898280501366,0.02076880633831024,0.010078979656100273
1731409790225111000,7.872111083984375,-0.007482878863811493,0.012216945178806782,0.00030542362947016954
1731409790234915600,7.88191552734375,-0.00992626789957285,0,-0.009468132629990578
1731409790244721000,7.891720947265625,-0.011147962883114815,-0.008551862090826035,-0.016798298805952072
1731409790254527000,7.90152685546875,-0.011147962883114815,-0.007330167107284069,-0.015576604753732681
1731409790264332300,7.911332275390625,-0.011147962883114815,0.007330167107284069,-0.004581354558467865
1731409790274136800,7.92113671875,-0.016034740954637527,0.028098974376916885,0.010078979656100273
1731409790283942100,7.930942138671875,-0.02092151902616024,0.043981000781059265,0.018630841746926308
1731409790293748200,7.940748291015625,-0.01969982497394085,0.047646086663007736,0.01252236869186163
1731409790303553500,7.950553466796875,-0.01725643500685692,0.04153761267662048,-0.004581354558467865
1731409790313358000,7.960358154296875,-0.011147962883114815,0.025655584409832954,-0.025350160896778107
1731409790323163400,7.970163330078125,-0.00259610079228878,0.004886778071522713,-0.04978405311703682
1731409790332969500,7.979969482421875,0.0022906772792339325,-0.014660334214568138,-0.07421794533729553
1731409790342774800,7.98977490234375,0.005955760832875967,-0.030542362481355667,-0.08765657991170883
1731409790352579300,7.999579345703125,0.005955760832875967,-0.03787253051996231,-0.09009996801614761
1731409790362384600,8.009384521484375,0.0010689827613532543,-0.030542362481355667,-0.08032641559839249
1731409790372190700,8.019190673828126,-0.0038177953101694584,-0.013438640162348747,-0.06200099736452103
1731409790381996000,8.02899609375,-0.00992626789957285,0.010995250195264816,-0.038788799196481705
1731409790391800600,8.038800537109376,-0.012369656935334206,0.03787253051996231,-0.016798298805952072
1731409790401606000,8.04860595703125,-0.013591351918876171,0.05497625470161438,-0.0009162708884105086
1731409790411412000,8.058411865234374,-0.011147962883114815,0.05741964280605316,0.008857285603880882
1731409790421217300,8.06821728515625,-0.007482878863811493,0.05008947476744652,0.01252236869186163
1731409790431021800,8.078021728515624,-0.0038177953101694584,0.04031591862440109,0.01252236869186163
1731409790440827100,8.0878271484375,0.0010689827613532543,0.030542362481355667,0.011300674639642239
1731409790450633200,8.09763330078125,0.005955760832875967,0.024433890357613564,0.007635590620338917
1731409790460438500,8.1074384765625,0.007177455350756645,0.01832541823387146,0.007635590620338917
1731409790470243000,8.1172431640625,0.004734066314995289,0.01832541823387146,0.007635590620338917
1731409790480048400,8.12704833984375,0.005955760832875967,0.023212196305394173,0.011300674639642239
1731409790489854700,8.136854736328125,0.004734066314995289,0.030542362481355667,0.018630841746926308
1731409790499660000,8.146659912109374,0.0010689827613532543,0.03542914241552353,0.028404397889971733
1731409790509464300,8.15646435546875,0.0010689827613532543,0.03176405653357506,0.033291175961494446
1731409790519270000,8.166269775390624,-0.00015271181473508477,0.023212196305394173,0.028404397889971733
1731409790529076000,8.176075927734376,0.004734066314995289,0.021990500390529633,0.016187451779842377
1731409790538881300,8.18588134765625,0.010842538438737392,0.025655584409832954,0.010078979656100273
1731409790548685600,8.195685546875,0.010842538438737392,0.021990500390529633,0.013744063675403595
1731409790558491100,8.2054912109375,0.010842538438737392,0.013438640162348747,0.017409147694706917
1731409790568297200,8.215297119140626,0.007177455350756645,0.006108472589403391,0.011300674639642239
1731409790578102500,8.2251025390625,0.005955760832875967,-0.0012216945178806782,-0.005803049076348543
1731409790587906800,8.23490673828125,0.007177455350756645,-0.008551862090826035,-0.015576604753732681
1731409790597712400,8.24471240234375,0.010842538438737392,-0.013438640162348747,-0.018019994720816612
1731409790607518500,8.2545185546875,0.01695101149380207,-0.01954711228609085,-0.018019994720816612
1731409790617323800,8.26432373046875,0.020616095513105392,-0.025655584409832954,-0.021685076877474785
1731409790627128000,8.274128173828124,0.019394399598240852,-0.01954711228609085,-0.019241688773036003
1731409790636933600,8.28393359375,0.01695101149380207,-0.0012216945178806782,-0.009468132629990578
1731409790646739700,8.29373974609375,0.013285927474498749,0.013438640162348747,0.00519220158457756
1731409790656545000,8.303544921875,0.008399149402976036,0.01588202826678753,0.013744063675403595
1731409790666349300,8.313349365234375,0.0035123717971146107,0.008551862090826035,0.016187451779842377
1731409790676155000,8.32315478515625,0.0022906772792339325,0.0012216945178806782,0.011300674639642239
1731409790685961000,8.3329609375,0.0035123717971146107,-0.0012216945178806782,0.007635590620338917
1731409790695766300,8.342766357421874,0.0022906772792339325,0.0012216945178806782,0.00519220158457756
1731409790705570600,8.352570556640625,0.0010689827613532543,0.008551862090826035,0.002748812548816204
1731409790715376000,8.362376220703124,0.0010689827613532543,0.012216945178806782,0.00030542362947016954
1731409790725182200,8.37218212890625,0.0010689827613532543,0.01588202826678753,0.003970507066696882
1731409790734987500,8.381987548828125,-0.00015271181473508477,0.01588202826678753,0.008857285603880882
1731409790744791800,8.391791748046876,-0.0038177953101694584,0.010995250195264816,0.01252236869186163
1731409790754597400,8.401597412109375,-0.0038177953101694584,0.006108472589403391,0.011300674639642239
1731409790764403500,8.411403564453124,-0.006261184345930815,0,0.008857285603880882
1731409790774208800,8.421208740234375,-0.007482878863811493,-0.0024433890357613564,0.00519220158457756
1731409790784013000,8.431012939453124,-0.006261184345930815,-0.009773556143045425,0.00030542362947016954
1731409790793818600,8.440818603515625,-0.007482878863811493,-0.01710372418165207,-0.005803049076348543
1731409790803624700,8.450624755859375,-0.0038177953101694584,-0.01954711228609085,-0.009468132629990578
1731409790813430000,8.460429931640626,-0.001374406274408102,-0.01710372418165207,-0.008246437646448612
1731409790823234300,8.470234375,-0.001374406274408102,-0.01954711228609085,-0.003359660040587187
1731409790833040000,8.480039794921876,-0.00259610079228878,-0.023212196305394173,-0.0009162708884105086
1731409790842846000,8.489845947265625,-0.0038177953101694584,-0.026877280324697495,0.00030542362947016954
1731409790852651300,8.4996513671875,-0.00259610079228878,-0.029320668429136276,0.0015271181473508477
1731409790862455800,8.509455810546875,-0.007482878863811493,-0.03298575058579445,0.003970507066696882
1731409790872261000,8.51926123046875,-0.00992626789957285,-0.03542914241552353,0.006413896102458239
1731409790882067200,8.529067138671875,-0.013591351918876171,-0.03298575058579445,0.007635590620338917
1731409790891872500,8.53887255859375,-0.016034740954637527,-0.030542362481355667,0.010078979656100273
1731409790901677000,8.548677001953125,-0.014813045971095562,-0.03176405653357506,0.010078979656100273
1731409790911482400,8.558482421875,-0.012369656935334206,-0.03787253051996231,0.007635590620338917
1731409790921288400,8.568288330078126,-0.008704573847353458,-0.046424392610788345,0.0015271181473508477
1731409790931093800,8.57809375,-0.008704573847353458,-0.0525328628718853,-0.004581354558467865
1731409790940898000,8.58789794921875,-0.007482878863811493,-0.05008947476744652,-0.007024743594229221
1731409790950703600,8.59770361328125,-0.007482878863811493,-0.04153761267662048,-0.004581354558467865
1731409790960509700,8.607509765625,-0.008704573847353458,-0.03176405653357506,0.00030542362947016954
1731409790970315000,8.61731494140625,-0.016034740954637527,-0.029320668429136276,0.003970507066696882
1731409790980119300,8.627119384765624,-0.016034740954637527,-0.030542362481355667,-0.0009162708884105086
1731409790989924900,8.6369248046875,-0.012369656935334206,-0.030542362481355667,-0.013133215717971325
1731409790999731000,8.64673095703125,-0.008704573847353458,-0.026877280324697495,-0.021685076877474785
1731409791009536300,8.656536376953126,-0.011147962883114815,-0.024433890357613564,-0.016798298805952072
1731409791019340500,8.666340576171875,-0.013591351918876171,-0.024433890357613564,-0.007024743594229221
1731409791029146000,8.67614599609375,-0.01847812905907631,-0.025655584409832954,-0.005803049076348543
1731409791038952200,8.6859521484375,-0.02092151902616024,-0.024433890357613564,-0.015576604753732681
1731409791048757500,8.695757568359374,-0.01847812905907631,-0.01832541823387146,-0.025350160896778107
1731409791058561800,8.705561767578125,-0.01847812905907631,-0.02076880633831024,-0.02901524491608143
1731409791068367400,8.715367431640624,-0.016034740954637527,-0.029320668429136276,-0.03145863488316536
1731409791078173400,8.72517333984375,-0.00992626789957285,-0.03298575058579445,-0.03145863488316536
1731409791087978800,8.734978759765625,-0.006261184345930815,-0.023212196305394173,-0.026571854948997498
1731409791097783000,8.744782958984375,-0.006261184345930815,-0.0024433890357613564,-0.01435491070151329
1731409791107588600,8.754588623046875,-0.011147962883114815,0.01954711228609085,0.00519220158457756
1731409791117394700,8.764394775390626,-0.01847812905907631,0.030542362481355667,0.0198525357991457
1731409791127200000,8.774199951171875,-0.01969982497394085,0.030542362481355667,0.02229592576622963
1731409791137004300,8.78400439453125,-0.01847812905907631,0.021990500390529633,0.013744063675403595
1731409791146809900,8.793809814453125,-0.014813045971095562,0.014660334214568138,0.003970507066696882
1731409791156616000,8.803615966796874,-0.011147962883114815,0.0024433890357613564,-0.003359660040587187
1731409791166421200,8.813421142578125,-0.008704573847353458,-0.006108472589403391,-0.004581354558467865
1731409791176225500,8.8232255859375,-0.008704573847353458,-0.0012216945178806782,-0.0009162708884105086
1731409791186031000,8.833031005859375,-0.011147962883114815,0.01588202826678753,0.007635590620338917
1731409791195837200,8.842837158203125,-0.013591351918876171,0.030542362481355667,0.017409147694706917
1731409791205642500,8.852642578125,-0.013591351918876171,0.03298575058579445,0.02229592576622963
1731409791215446800,8.86244677734375,-0.014813045971095562,0.026877280324697495,0.016187451779842377
1731409791225252400,8.87225244140625,-0.011147962883114815,0.013438640162348747,0.002748812548816204
1731409791235058400,8.882058349609375,-0.007482878863811493,-0.0024433890357613564,-0.008246437646448612
1731409791244863700,8.89186376953125,-0.0038177953101694584,-0.01710372418165207,-0.015576604753732681
1731409791254668000,8.90166796875,-0.0050394898280501366,-0.025655584409832954,-0.019241688773036003
1731409791264473300,8.911473388671874,-0.0038177953101694584,-0.021990500390529633,-0.018019994720816612
1731409791274279700,8.92127978515625,-0.0050394898280501366,-0.012216945178806782,-0.013133215717971325
1731409791284085000,8.9310849609375,-0.007482878863811493,-0.0024433890357613564,-0.007024743594229221
1731409791293889300,8.94088916015625,-0.007482878863811493,0.004886778071522713,-0.005803049076348543
1731409791303694800,8.95069482421875,-0.008704573847353458,0.0012216945178806782,-0.009468132629990578
1731409791313501000,8.9605009765625,-0.008704573847353458,-0.009773556143045425,-0.015576604753732681
1731409791323306200,8.97030615234375,-0.0038177953101694584,-0.021990500390529633,-0.021685076877474785
1731409791333110500,8.980110595703126,-0.001374406274408102,-0.029320668429136276,-0.021685076877474785
1731409791342916000,8.989916015625,-0.00259610079228878,-0.029320668429136276,-0.019241688773036003
1731409791352722200,8.99972216796875,-0.006261184345930815,-0.01710372418165207,-0.011911521665751934
1731409791362527500,9.009527587890625,-0.007482878863811493,-0.0024433890357613564,-0.004581354558467865
1731409791372331800,9.019331787109374,-0.007482878863811493,0.0036650835536420345,0.0015271181473508477
1731409791382137300,9.029137451171875,-0.006261184345930815,0,0.00519220158457756
1731409791391943400,9.038943359375,-0.0050394898280501366,-0.004886778071522713,0.00519220158457756
1731409791401748700,9.048748779296876,-0.0038177953101694584,-0.007330167107284069,0.006413896102458239
1731409791411553000,9.058552978515625,-0.007482878863811493,-0.007330167107284069,0.006413896102458239
1731409791421358300,9.0683583984375,-0.008704573847353458,-0.0036650835536420345,0.008857285603880882
1731409791431164700,9.07816455078125,-0.011147962883114815,0,0.01252236869186163
1731409791440970000,9.087969970703124,-0.014813045971095562,-0.0012216945178806782,0.014965757727622986
1731409791450774300,9.097774169921875,-0.014813045971095562,-0.004886778071522713,0.007635590620338917
1731409791460579600,9.10757958984375,-0.014813045971095562,-0.0036650835536420345,-0.005803049076348543
1731409791470385700,9.1173857421875,-0.012369656935334206,0.0012216945178806782,-0.011911521665751934
1731409791480191000,9.12719091796875,-0.007482878863811493,-0.0012216945178806782,-0.003359660040587187
1731409791489995500,9.13699560546875,-0.0050394898280501366,-0.007330167107284069,0.0015271181473508477
1731409791499800800,9.14680078125,-0.00259610079228878,-0.009773556143045425,-0.010689826682209969
1731409791509607000,9.15660693359375,0.0022906772792339325,-0.01588202826678753,-0.02901524491608143
1731409791519412200,9.166412109375,0.0035123717971146107,-0.026877280324697495,-0.038788799196481705
1731409791529216800,9.176216796875,0.0035123717971146107,-0.03787253051996231,-0.040010496973991394
1731409791539022000,9.18602197265625,0.008399149402976036,-0.03665083646774292,-0.03512371703982353
1731409791548828200,9.195828125,0.012064233422279358,-0.024433890357613564,-0.027793550863862038
1731409791558633500,9.205633544921875,0.013285927474498749,-0.0036650835536420345,-0.015576604753732681
1731409791568438000,9.21543798828125,0.013285927474498749,0.014660334214568138,-0.003359660040587187
1731409791578243300,9.225243408203125,0.010842538438737392,0.01832541823387146,0.003970507066696882
1731409791588049400,9.23504931640625,0.012064233422279358,0.008551862090826035,0.002748812548816204
1731409791597854700,9.244854736328126,0.012064233422279358,-0.0012216945178806782,0.0015271181473508477
1731409791607659300,9.2546591796875,0.008399149402976036,-0.0036650835536420345,0.002748812548816204
1731409791617464600,9.264464599609376,0.004734066314995289,-0.0012216945178806782,0.003970507066696882
1731409791627270700,9.274270751953125,0.004734066314995289,0.0024433890357613564,0.00519220158457756
1731409791637076000,9.284075927734374,0.008399149402976036,0.006108472589403391,0.003970507066696882
1731409791646880500,9.293880615234375,0.009620844386518002,0.008551862090826035,0.003970507066696882
1731409791656685800,9.303685791015624,0.007177455350756645,0.012216945178806782,0.006413896102458239
1731409791666492000,9.313491943359375,-0.001374406274408102,0.01954711228609085,0.013744063675403595
1731409791676297200,9.323297119140625,-0.0050394898280501366,0.026877280324697495,0.02229592576622963
1731409791686101800,9.333101806640625,-0.006261184345930815,0.03420744836330414,0.028404397889971733
1731409791695907000,9.342906982421875,-0.00992626789957285,0.03665083646774292,0.028404397889971733
1731409791705713200,9.352713134765626,-0.012369656935334206,0.029320668429136276,0.02229592576622963
1731409791715518500,9.3625185546875,-0.013591351918876171,0.014660334214568138,0.011300674639642239
1731409791725323000,9.372322998046876,-0.00992626789957285,0.0036650835536420345,0.00030542362947016954
1731409791735128300,9.38212841796875,-0.007482878863811493,0.0024433890357613564,-0.0021379655227065086
1731409791744934400,9.391934326171874,-0.008704573847353458,0.008551862090826035,0.00030542362947016954
1731409791754739700,9.40173974609375,-0.012369656935334206,0.01588202826678753,0.002748812548816204
1731409791764544300,9.411544189453124,-0.013591351918876171,0.021990500390529633,0.002748812548816204
1731409791774349600,9.421349609375,-0.014813045971095562,0.026877280324697495,0.003970507066696882
1731409791784155600,9.43115576171875,-0.014813045971095562,0.029320668429136276,0.00519220158457756
1731409791793961000,9.4409609375,-0.014813045971095562,0.025655584409832954,0.006413896102458239
1731409791803765500,9.450765625,-0.012369656935334206,0.023212196305394173,0.006413896102458239
1731409791813570800,9.46057080078125,-0.00992626789957285,0.01954711228609085,0.003970507066696882
1731409791823377000,9.470376953125,-0.011147962883114815,0.01954711228609085,0.00030542362947016954
1731409791833182000,9.480181884765624,-0.008704573847353458,0.023212196305394173,-0.0021379655227065086
1731409791842986500,9.489986572265625,-0.008704573847353458,0.025655584409832954,-0.007024743594229221
1731409791852792000,9.4997919921875,-0.0050394898280501366,0.028098974376916885,-0.010689826682209969
1731409791862598100,9.50959814453125,-0.00259610079228878,0.026877280324697495,-0.015576604753732681
1731409791872403500,9.519403564453125,0.0010689827613532543,0.02076880633831024,-0.020463382825255394
1731409791882207700,9.529207763671875,0.0022906772792339325,0.008551862090826035,-0.022906772792339325
1731409791892013000,9.539012939453125,0.005955760832875967,-0.0024433890357613564,-0.026571854948997498
1731409791901819400,9.5488193359375,0.004734066314995289,-0.009773556143045425,-0.02901524491608143
1731409791911624400,9.55862451171875,0.004734066314995289,-0.012216945178806782,-0.03390202298760414
1731409791921429000,9.568428955078126,0.004734066314995289,-0.004886778071522713,-0.042453885078430176
1731409791931234300,9.578234375,0.005955760832875967,0.008551862090826035,-0.038788799196481705
1731409791941040400,9.588040283203124,0.0035123717971146107,0.01588202826678753,-0.018019994720816612
1731409791950845700,9.597845703125,0.0022906772792339325,0.02076880633831024,0.002748812548816204
1731409791960650200,9.607650146484374,-0.00259610079228878,0.023212196305394173,0.006413896102458239
1731409791970455600,9.61745556640625,-0.00015271181473508477,0.01832541823387146,-0.009468132629990578
1731409791980261600,9.62726171875,0.004734066314995289,0.0036650835536420345,-0.026571854948997498
1731409791990067000,9.63706689453125,0.010842538438737392,-0.012216945178806782,-0.03390202298760414
1731409791999871500,9.64687158203125,0.01695101149380207,-0.01832541823387146,-0.03145863488316536
1731409792009676800,9.6566767578125,0.019394399598240852,-0.012216945178806782,-0.026571854948997498
1731409792019483000,9.66648291015625,0.01695101149380207,0.0036650835536420345,-0.016798298805952072
1731409792029288200,9.6762880859375,0.012064233422279358,0.024433890357613564,-0.0009162708884105086
1731409792039092700,9.6860927734375,0.008399149402976036,0.03665083646774292,0.017409147694706917
1731409792048898000,9.69589794921875,0.008399149402976036,0.03542914241552353,0.027182703837752342
1731409792058704100,9.7057041015625,0.009620844386518002,0.023212196305394173,0.027182703837752342
1731409792068509400,9.715509521484375,0.012064233422279358,0.013438640162348747,0.02473931387066841
1731409792078314000,9.72531396484375,0.013285927474498749,0.009773556143045425,0.0198525357991457
1731409792088119300,9.735119384765625,0.013285927474498749,0.012216945178806782,0.018630841746926308
1731409792097925400,9.74492529296875,0.010842538438737392,0.013438640162348747,0.013744063675403595
1731409792107730700,9.754730712890625,0.012064233422279358,0.013438640162348747,0.010078979656100273
1731409792117535200,9.76453515625,0.014507622458040714,0.01710372418165207,0.010078979656100273
1731409792127340500,9.774340576171875,0.014507622458040714,0.01954711228609085,0.011300674639642239
1731409792137146600,9.784146728515625,0.012064233422279358,0.01588202826678753,0.011300674639642239
1731409792146952000,9.793951904296875,0.013285927474498749,0.009773556143045425,0.006413896102458239
1731409792156756200,9.803756103515624,0.014507622458040714,0.007330167107284069,0.003970507066696882
1731409792166561800,9.813561767578125,0.013285927474498749,0.006108472589403391,0.0015271181473508477
1731409792176367900,9.823367919921875,0.010842538438737392,-0.0012216945178806782,-0.0009162708884105086
1731409792186173200,9.833173095703126,0.012064233422279358,-0.008551862090826035,-0.003359660040587187
1731409792195977500,9.8429775390625,0.013285927474498749,-0.008551862090826035,-0.003359660040587187
1731409792205782800,9.85278271484375,0.014507622458040714,-0.004886778071522713,0.00030542362947016954
1731409792215588900,9.8625888671875,0.012064233422279358,-0.004886778071522713,0.00519220158457756
1731409792225394200,9.872394287109374,0.008399149402976036,-0.010995250195264816,0.006413896102458239
1731409792235198700,9.88219873046875,0.004734066314995289,-0.01832541823387146,0.008857285603880882
1731409792245004000,9.892004150390624,0.0022906772792339325,-0.01832541823387146,0.01252236869186163
1731409792254810400,9.901810302734376,0.0022906772792339325,-0.010995250195264816,0.018630841746926308
1731409792264615700,9.91161572265625,0.0022906772792339325,-0.007330167107284069,0.02473931387066841
1731409792274420000,9.921419921875,0.0010689827613532543,-0.009773556143045425,0.025961007922887802
1731409792284225300,9.931225341796875,-0.00015271181473508477,-0.014660334214568138,0.018630841746926308
1731409792294031400,9.94103125,0.0010689827613532543,-0.014660334214568138,0.013744063675403595
1731409792303836700,9.950836669921875,0.0035123717971146107,-0.014660334214568138,0.011300674639642239
1731409792313641200,9.96064111328125,0.0035123717971146107,-0.014660334214568138,0.008857285603880882
1731409792323446500,9.970446533203125,0.004734066314995289,-0.01588202826678753,0.00519220158457756
1731409792333252600,9.980252685546875,0.0022906772792339325,-0.01954711228609085,0.0015271181473508477
1731409792343058000,9.990057861328125,0.0010689827613532543,-0.01588202826678753,0.00519220158457756
1731409792352862500,9.999862548828125,-0.001374406274408102,-0.007330167107284069,0.01252236869186163
1731409792362667800,10.009667724609375,-0.0038177953101694584,-0.010995250195264816,0.017409147694706917
1731409792372473900,10.019473876953125,-0.007482878863811493,-0.024433890357613564,0.008857285603880882
1731409792382279200,10.029279052734376,-0.013591351918876171,-0.026877280324697495,-0.008246437646448612
1731409792392083700,10.039083740234375,-0.012369656935334206,-0.01710372418165207,-0.019241688773036003
1731409792401889000,10.048888916015626,-0.00992626789957285,-0.007330167107284069,-0.011911521665751934
1731409792411695000,10.058695068359375,-0.00992626789957285,-0.006108472589403391,0.0015271181473508477
1731409792421500400,10.06850048828125,-0.014813045971095562,-0.009773556143045425,0.00030542362947016954
1731409792431304700,10.0783046875,-0.016034740954637527,-0.009773556143045425,-0.016798298805952072
1731409792441110300,10.0881103515625,-0.01725643500685692,-0.004886778071522713,-0.03023693896830082
1731409792450916400,10.097916259765626,-0.02092151902616024,-0.004886778071522713,-0.03268032893538475
1731409792460721400,10.107721435546875,-0.02214321307837963,-0.009773556143045425,-0.02901524491608143
1731409792470526000,10.11752587890625,-0.02092151902616024,-0.010995250195264816,-0.02901524491608143
1731409792480331300,10.127331298828125,-0.02092151902616024,-0.006108472589403391,-0.03268032893538475
1731409792490137600,10.1371376953125,-0.02214321307837963,0,-0.03512371703982353
1731409792499943000,10.14694287109375,-0.02092151902616024,0.0012216945178806782,-0.03023693896830082
1731409792509747200,10.156747314453124,-0.01969982497394085,0.0024433890357613564,-0.025350160896778107
1731409792519552500,10.166552490234375,-0.01847812905907631,0.007330167107284069,-0.025350160896778107
1731409792529358600,10.176358642578125,-0.02214321307837963,0.009773556143045425,-0.024128466844558716
1731409792539164000,10.186163818359375,-0.01969982497394085,0.012216945178806782,-0.025350160896778107
1731409792548968400,10.195968505859375,-0.01847812905907631,0.012216945178806782,-0.026571854948997498
1731409792558773800,10.205773681640625,-0.02214321307837963,0.009773556143045425,-0.03023693896830082
1731409792568579800,10.215579833984375,-0.02214321307837963,0.007330167107284069,-0.03512371703982353
1731409792578385200,10.22538525390625,-0.02092151902616024,0.009773556143045425,-0.03634541109204292
1731409792588189700,10.235189697265625,-0.01969982497394085,0.008551862090826035,-0.03268032893538475
1731409792597995000,10.2449951171875,-0.01725643500685692,0.004886778071522713,-0.03023693896830082
1731409792607801000,10.254801025390625,-0.01847812905907631,0.0036650835536420345,-0.03023693896830082
1731409792617606400,10.2646064453125,-0.01969982497394085,0.007330167107284069,-0.02901524491608143
1731409792627410700,10.27441064453125,-0.02092151902616024,0.012216945178806782,-0.026571854948997498
1731409792637216300,10.28421630859375,-0.024586603045463562,0.013438640162348747,-0.026571854948997498
1731409792647022300,10.294022216796876,-0.02092151902616024,0.012216945178806782,-0.027793550863862038
1731409792656827600,10.30382763671875,-0.016034740954637527,0.010995250195264816,-0.026571854948997498
1731409792666632000,10.3136318359375,-0.012369656935334206,0.004886778071522713,-0.025350160896778107
1731409792676437500,10.3234375,-0.007482878863811493,-0.004886778071522713,-0.027793550863862038
1731409792686243600,10.33324365234375,-0.001374406274408102,-0.009773556143045425,-0.03145863488316536
1731409792696049000,10.343048828125,0.0035123717971146107,-0.008551862090826035,-0.03268032893538475
1731409792705853200,10.352853271484374,0.010842538438737392,-0.006108472589403391,-0.03512371703982353
1731409792715658500,10.362658447265625,0.014507622458040714,-0.006108472589403391,-0.037567105144262314
1731409792725464600,10.372464599609375,0.01572931744158268,-0.004886778071522713,-0.040010496973991394
1731409792735270000,10.382269775390625,0.014507622458040714,-0.004886778071522713,-0.038788799196481705
1731409792745074400,10.392074462890625,0.012064233422279358,-0.006108472589403391,-0.03390202298760414
1731409792754879700,10.401879638671875,0.012064233422279358,-0.006108472589403391,-0.03023693896830082
1731409792764685800,10.411685791015625,0.013285927474498749,-0.006108472589403391,-0.03145863488316536
1731409792774491100,10.4214912109375,0.012064233422279358,-0.010995250195264816,-0.03390202298760414
1731409792784295700,10.431295654296875,0.009620844386518002,-0.014660334214568138,-0.03634541109204292
1731409792794101000,10.44110107421875,0.005955760832875967,-0.010995250195264816,-0.03634541109204292
1731409792803907000,10.450906982421875,-0.001374406274408102,-0.004886778071522713,-0.03390202298760414
1731409792813712400,10.46071240234375,-0.011147962883114815,-0.004886778071522713,-0.03023693896830082
1731409792823517000,10.470516845703125,-0.01847812905907631,-0.01588202826678753,-0.03512371703982353
1731409792833322200,10.480322265625,-0.030695075169205666,-0.023212196305394173,-0.04367557913064957
1731409792843128300,10.49012841796875,-0.030695075169205666,-0.01954711228609085,-0.05100574716925621
1731409792852933600,10.49993359375,-0.028251685202121735,-0.0024433890357613564,-0.0522274412214756
1731409792862738000,10.509738037109376,-0.027029991149902344,0.01832541823387146,-0.04611896723508835
1731409792872543500,10.51954345703125,-0.031916771084070206,0.030542362481355667,-0.03390202298760414
1731409792882349600,10.529349609375,-0.03558185324072838,0.030542362481355667,-0.026571854948997498
1731409792892155000,10.53915478515625,-0.03680354729294777,0.02076880633831024,-0.03145863488316536
1731409792901959200,10.548959228515624,-0.03436015918850899,0.012216945178806782,-0.038788799196481705
1731409792911764500,10.558764404296875,-0.031916771084070206,0.009773556143045425,-0.04489727318286896
1731409792921570600,10.568570556640625,-0.027029991149902344,0.010995250195264816,-0.041232191026210785
1731409792931375900,10.5783759765625,-0.02214321307837963,0.01954711228609085,-0.03145863488316536
1731409792941180400,10.588180419921875,-0.01725643500685692,0.029320668429136276,-0.020463382825255394
1731409792950985700,10.59798583984375,-0.012369656935334206,0.03665083646774292,-0.01435491070151329
1731409792960791800,10.607791748046875,-0.013591351918876171,0.04031591862440109,-0.009468132629990578
1731409792970597000,10.61759716796875,-0.013591351918876171,0.03665083646774292,-0.003359660040587187
1731409792980401700,10.627401611328125,-0.012369656935334206,0.03176405653357506,0.0015271181473508477
1731409792990207000,10.63720703125,-0.011147962883114815,0.026877280324697495,0.002748812548816204
1731409793000013000,10.647012939453125,-0.00992626789957285,0.02076880633831024,-0.003359660040587187
1731409793009818400,10.656818359375,-0.006261184345930815,0.01588202826678753,-0.009468132629990578
1731409793019623000,10.666622802734375,-0.0038177953101694584,0.014660334214568138,-0.015576604753732681
1731409793029428200,10.67642822265625,-0.00015271181473508477,0.014660334214568138,-0.020463382825255394
1731409793039234300,10.686234375,0.0010689827613532543,0.01832541823387146,-0.022906772792339325
1731409793049039400,10.696039306640625,-0.00015271181473508477,0.01954711228609085,-0.025350160896778107
1731409793058844000,10.705843994140626,-0.00259610079228878,0.009773556143045425,-0.03145863488316536
1731409793068649200,10.715649169921875,0.0035123717971146107,-0.0012216945178806782,-0.04489727318286896
1731409793078455300,10.725455322265624,0.010842538438737392,-0.008551862090826035,-0.057114217430353165
1731409793088260600,10.735260498046875,0.012064233422279358,-0.009773556143045425,-0.060779303312301636
1731409793098065200,10.745065185546874,0.008399149402976036,-0.009773556143045425,-0.058335911482572556
1731409793107870500,10.754870361328125,0.0022906772792339325,-0.007330167107284069,-0.055892523378133774
1731409793117676500,10.764676513671875,-0.0038177953101694584,-0.0024433890357613564,-0.0522274412214756
1731409793127481900,10.77448193359375,-0.007482878863811493,0.0012216945178806782,-0.04856235533952713
1731409793137286400,10.784286376953125,-0.011147962883114815,0.006108472589403391,-0.04489727318286896
1731409793147091700,10.794091796875,-0.011147962883114815,0.008551862090826035,-0.04489727318286896
1731409793156897800,10.803897705078125,-0.011147962883114815,0.006108472589403391,-0.04856235533952713
1731409793166703000,10.813703125,-0.012369656935334206,0.0024433890357613564,-0.04978405311703682
1731409793176507600,10.823507568359375,-0.016034740954637527,0.007330167107284069,-0.04611896723508835
1731409793186313000,10.83331298828125,-0.01847812905907631,0.02076880633831024,-0.040010496973991394
1731409793196119000,10.843119140625,-0.02214321307837963,0.030542362481355667,-0.03145863488316536
1731409793205924400,10.85292431640625,-0.024586603045463562,0.028098974376916885,-0.026571854948997498
1731409793215728600,10.862728759765625,-0.023364907130599022,0.01954711228609085,-0.027793550863862038
1731409793225534200,10.8725341796875,-0.01847812905907631,0.009773556143045425,-0.03145863488316536
1731409793235340300,10.88234033203125,-0.014813045971095562,0.004886778071522713,-0.03268032893538475
1731409793245145600,10.8921455078125,-0.013591351918876171,0,-0.026571854948997498
1731409793254950000,10.901949951171876,-0.014813045971095562,-0.0012216945178806782,-0.018019994720816612
1731409793264755200,10.911755126953125,-0.01847812905907631,0.0024433890357613564,-0.007024743594229221
1731409793274561300,10.921561279296874,-0.02092151902616024,0.01954711228609085,0.003970507066696882
1731409793284366600,10.93136669921875,-0.01969982497394085,0.0390942245721817,0.0198525357991457
1731409793294171100,10.941171142578124,-0.01969982497394085,0.05131116881966591,0.032069481909275055
1731409793303976400,10.9509765625,-0.01725643500685692,0.045202698558568954,0.03573456406593323
1731409793313782500,10.960782470703125,-0.014813045971095562,0.023212196305394173,0.029626091942191124
1731409793323587800,10.970587890625,-0.006261184345930815,0.0012216945178806782,0.017409147694706917
1731409793333392400,10.980392333984375,0.0010689827613532543,-0.0036650835536420345,0.011300674639642239
1731409793343197700,10.99019775390625,0.004734066314995289,-0.0024433890357613564,0.018630841746926308
1731409793353003800,11.000003662109375,0.005955760832875967,-0.004886778071522713,0.030847785994410515
1731409793362809000,11.00980908203125,0.007177455350756645,-0.009773556143045425,0.027182703837752342
1731409793372613400,11.01961328125,0.010842538438737392,-0.012216945178806782,0.011300674639642239
1731409793382419000,11.0294189453125,0.013285927474498749,-0.013438640162348747,0.00030542362947016954
1731409793392225000,11.03922509765625,0.01695101149380207,-0.01954711228609085,-0.004581354558467865
1731409793402030300,11.0490302734375,0.024281177669763565,-0.03176405653357506,-0.004581354558467865
1731409793411834600,11.058834716796875,0.026724567636847496,-0.0390942245721817,0.00030542362947016954
1731409793421640000,11.068639892578124,0.029167955741286278,-0.028098974376916885,0.011300674639642239
1731409793431446000,11.078446044921876,0.030389651656150818,-0.0024433890357613564,0.030847785994410515
1731409793441251300,11.088251220703125,0.026724567636847496,0.023212196305394173,0.05405998229980469
1731409793451055900,11.098055908203126,0.019394399598240852,0.03420744836330414,0.06872031837701797
1731409793460861200,11.107861083984375,0.014507622458040714,0.03665083646774292,0.07360709458589554
1731409793470667300,11.117667236328124,0.013285927474498749,0.028098974376916885,0.07238540053367615
1731409793480472600,11.12747265625,0.014507622458040714,0.010995250195264816,0.07116370648145676
1731409793490277000,11.137277099609374,0.012064233422279358,-0.0012216945178806782,0.06994201242923737
1731409793500082400,11.14708251953125,0.012064233422279358,-0.0024433890357613564,0.07482878863811493
1731409793509888500,11.156888427734375,0.014507622458040714,0.010995250195264816,0.08215895295143127
1731409793519693800,11.16669384765625,0.014507622458040714,0.028098974376916885,0.08704573661088943
1731409793529498000,11.176498046875,0.012064233422279358,0.03787253051996231,0.08948912471532822
1731409793539303700,11.1863037109375,0.010842538438737392,0.03542914241552353,0.08338065445423126
1731409793549109800,11.19610986328125,0.010842538438737392,0.024433890357613564,0.07238540053367615
1731409793558914800,11.205914794921876,0.007177455350756645,0.014660334214568138,0.05894676223397255
1731409793568719400,11.21571923828125,0.0022906772792339325,0.006108472589403391,0.051616594195365906
1731409793578524700,11.225524658203126,0.0010689827613532543,-0.0024433890357613564,0.046729814261198044
1731409793588330800,11.235330810546875,-0.00259610079228878,-0.004886778071522713,0.0393996499478817
1731409793598136000,11.245135986328124,-0.007482878863811493,-0.0024433890357613564,0.033291175961494446
1731409793607940600,11.254940673828125,-0.00992626789957285,0,0.028404397889971733
1731409793617746000,11.264745849609374,-0.012369656935334206,-0.0012216945178806782,0.025961007922887802
1731409793627552000,11.274552001953126,-0.012369656935334206,-0.006108472589403391,0.02229592576622963
1731409793637357300,11.284357421875,-0.013591351918876171,-0.013438640162348747,0.0198525357991457
1731409793647161900,11.294161865234376,-0.014813045971095562,-0.02076880633831024,0.017409147694706917
1731409793656967200,11.30396728515625,-0.013591351918876171,-0.024433890357613564,0.018630841746926308
1731409793666773200,11.313773193359374,-0.012369656935334206,-0.026877280324697495,0.018630841746926308
1731409793676578300,11.323578369140625,-0.011147962883114815,-0.026877280324697495,0.014965757727622986
1731409793686382800,11.3333828125,-0.012369656935334206,-0.023212196305394173,0.013744063675403595
1731409793696188200,11.343188232421875,-0.014813045971095562,-0.02076880633831024,0.013744063675403595
1731409793705994200,11.352994140625,-0.016034740954637527,-0.01710372418165207,0.014965757727622986
1731409793715799600,11.362799560546875,-0.014813045971095562,-0.013438640162348747,0.01252236869186163
1731409793725604000,11.37260400390625,-0.013591351918876171,-0.013438640162348747,0.01252236869186163
1731409793735409400,11.382409423828125,-0.012369656935334206,-0.01832541823387146,0.008857285603880882
1731409793745215500,11.392215576171875,-0.008704573847353458,-0.024433890357613564,0.003970507066696882
1731409793755020800,11.402020751953126,-0.0038177953101694584,-0.03298575058579445,-0.0021379655227065086
1731409793764825300,11.411825439453125,-0.00259610079228878,-0.03665083646774292,-0.007024743594229221
1731409793774630700,11.421630615234376,-0.006261184345930815,-0.03665083646774292,-0.007024743594229221
1731409793784436700,11.431436767578125,-0.00992626789957285,-0.030542362481355667,-0.0009162708884105086
1731409793794242000,11.441241943359374,-0.00992626789957285,-0.01588202826678753,0.003970507066696882
1731409793804046600,11.451046630859375,-0.007482878863811493,0.006108472589403391,0.007635590620338917
1731409793813852000,11.460851806640624,-0.0050394898280501366,0.01832541823387146,0.016187451779842377
1731409793823658000,11.470657958984376,-0.001374406274408102,0.009773556143045425,0.02473931387066841
1731409793833463300,11.48046337890625,-0.00015271181473508477,-0.007330167107284069,0.017409147694706917
1731409793843267600,11.490267578125,0.0010689827613532543,-0.01710372418165207,-0.007024743594229221
1731409793853073000,11.500072998046875,0.0035123717971146107,-0.021990500390529633,-0.021685076877474785
1731409793862879000,11.50987890625,0.005955760832875967,-0.026877280324697495,-0.021685076877474785
1731409793872684300,11.519684326171875,0.007177455350756645,-0.029320668429136276,-0.016798298805952072
1731409793882488800,11.52948876953125,0.013285927474498749,-0.01954711228609085,-0.009468132629990578
1731409793892294100,11.539294189453125,0.01817270554602146,0.0024433890357613564,0.003970507066696882
1731409793902100200,11.549100341796875,0.023059483617544174,0.025655584409832954,0.0198525357991457
1731409793911905500,11.558905517578125,0.023059483617544174,0.04031591862440109,0.03573456406593323
1731409793921710000,11.5687099609375,0.021837789565324783,0.04153761267662048,0.04306473210453987
1731409793931515400,11.578515380859375,0.020616095513105392,0.03542914241552353,0.04428642615675926
1731409793941321500,11.588321533203125,0.020616095513105392,0.03176405653357506,0.04184303805232048
1731409793951126800,11.598126708984376,0.023059483617544174,0.028098974376916885,0.03573456406593323
1731409793960931000,11.60793115234375,0.025502873584628105,0.023212196305394173,0.027182703837752342
1731409793970736600,11.617736572265626,0.023059483617544174,0.010995250195264816,0.0198525357991457
1731409793980542500,11.62754248046875,0.024281177669763565,0.004886778071522713,0.016187451779842377
1731409793990347800,11.63734765625,0.019394399598240852,0.008551862090826035,0.014965757727622986
1731409794000152300,11.64715234375,0.012064233422279358,0.01588202826678753,0.0198525357991457
1731409794009957600,11.65695751953125,0.0035123717971146107,0.025655584409832954,0.02473931387066841
1731409794019763700,11.666763671875,-0.001374406274408102,0.03176405653357506,0.027182703837752342
1731409794029569000,11.676569091796875,-0.00259610079228878,0.028098974376916885,0.02229592576622963
1731409794039373600,11.68637353515625,-0.001374406274408102,0.01832541823387146,0.01252236869186163
1731409794049179000,11.696178955078125,-0.00259610079228878,0.0024433890357613564,0.002748812548816204
1731409794058985000,11.70598486328125,-0.00015271181473508477,-0.009773556143045425,-0.008246437646448612
1731409794068790300,11.715790283203125,0.0022906772792339325,-0.014660334214568138,-0.011911521665751934
1731409794078594800,11.7255947265625,0.0010689827613532543,-0.014660334214568138,-0.010689826682209969
1731409794088400100,11.735400146484375,-0.001374406274408102,-0.012216945178806782,-0.005803049076348543
1731409794098206200,11.745206298828125,-0.0038177953101694584,-0.008551862090826035,0.0015271181473508477
1731409794108011500,11.755011474609375,-0.0038177953101694584,-0.0024433890357613564,0.006413896102458239
1731409794117815800,11.76481591796875,-0.0038177953101694584,0.0036650835536420345,0.008857285603880882
1731409794127621000,11.77462109375,0.0022906772792339325,0.007330167107284069,0.007635590620338917
1731409794137427200,11.78442724609375,0.007177455350756645,0.007330167107284069,0.002748812548816204
1731409794147232500,11.794232421875,0.012064233422279358,0.0036650835536420345,-0.003359660040587187
1731409794157037000,11.804037109375,0.014507622458040714,-0.0012216945178806782,-0.009468132629990578
1731409794166842400,11.81384228515625,0.014507622458040714,-0.006108472589403391,-0.013133215717971325
1731409794176648400,11.8236484375,0.013285927474498749,-0.008551862090826035,-0.010689826682209969
1731409794186453800,11.833453857421874,0.014507622458040714,-0.004886778071522713,-0.005803049076348543
1731409794196258300,11.84325830078125,0.01817270554602146,0,-0.003359660040587187
1731409794206063600,11.853063720703124,0.01572931744158268,0.0024433890357613564,-0.0009162708884105086
1731409794215869700,11.86286962890625,0.009620844386518002,0.006108472589403391,0.0015271181473508477
1731409794225674800,11.8726748046875,0.007177455350756645,0.010995250195264816,0.00519220158457756
1731409794235479300,11.882479248046875,0.004734066314995289,0.01832541823387146,0.010078979656100273
1731409794245284600,11.89228466796875,-0.001374406274408102,0.01954711228609085,0.011300674639642239
1731409794255090700,11.902090576171876,-0.0038177953101694584,0.010995250195264816,0.007635590620338917
1731409794264896000,11.91189599609375,-0.001374406274408102,0.0036650835536420345,-0.004581354558467865
1731409794274700500,11.921700439453126,-0.00015271181473508477,0.009773556143045425,-0.011911521665751934
1731409794284505900,11.931505859375,-0.001374406274408102,0.009773556143045425,-0.004581354558467865
