time,seconds_elapsed,z,y,x
1732276345460019200,0.136019287109375,0.03608476743102074,0.5921363830566406,0.3744294047355652
1732276345470088400,0.14608837890625,0.13195574283599854,0.4323514401912689,0.42023444175720215
1732276345480157700,0.15615771484375,0.21823962032794952,0.2523270845413208,0.6066502332687378
1732276345490202400,0.166202392578125,0.22463101148605347,0.033954303711652756,0.8878717422485352
1732276345500243500,0.176243408203125,0.23421810567378998,-0.44659894704818726,1.112635850906372
1732276345510284800,0.186284912109375,0.21717438101768494,-0.6937330365180969,1.3384653329849243
1732276345520326000,0.196325927734375,0.24806614220142365,-0.6979939341545105,1.5770775079727173
1732276345530367200,0.2063671875,0.3375457227230072,-0.5691007375717163,1.7805370092391968
1732276345540408600,0.21640869140625,0.404655396938324,-0.20998406410217285,1.8913211822509766
1732276345550449700,0.22644970703125,0.37376365065574646,0.20865251123905182,1.8582990169525146
1732276345560491000,0.236490966796875,0.1681736707687378,0.23421810567378998,1.5792080163955688
1732276345570532000,0.246531982421875,-0.08854749798774719,-0.3250292241573334,1.1190272569656372
1732276345580573000,0.256572998046875,-0.2685718834400177,-0.8130391240119934,0.7472609877586365
1732276345590614000,0.266614013671875,-0.4102478623390198,-0.9334104657173157,0.44366955757141113
1732276345600654800,0.27665478515625,-0.5263582468032837,-0.7714950442314148,0.1699046641588211
1732276345610696000,0.286696044921875,-0.5955983996391296,-0.4177044928073883,-0.06764229387044907
1732276345620737000,0.296737060546875,-0.6307511329650879,0.017975807189941406,-0.2785584330558777
1732276345630778400,0.3067783203125,-0.6552514433860779,0.38441595435142517,-0.4468652606010437
1732276345640819500,0.3168193359375,-0.6797518134117126,0.4643084406852722,-0.5331491231918335
1732276345650860800,0.32686083984375,-0.7159697413444519,0.32156720757484436,-0.5416709780693054
1732276345660902000,0.33690185546875,-0.7266221046447754,0.057389430701732635,-0.5043878555297852
1732276345670943200,0.346943115234375,-0.6669690012931824,-0.2270277887582779,-0.43301722407341003
1732276345680984800,0.35698486328125,-0.5093145370483398,-0.343138188123703,-0.30199354887008667
1732276345691026200,0.367026123046875,-0.2259625494480133,-0.2664414048194885,-0.1294258087873459
1732276345701067500,0.377067626953125,0.15112993121147156,-0.1844184696674347,-0.0079892473295331
1732276345711108900,0.38710888671875,0.3268933892250061,-0.4519250988960266,-0.044207170605659485
1732276345721150500,0.397150390625,0.27895790338516235,-0.5051867365837097,-0.048468101769685745
1732276345731191800,0.40719189453125,0.21717438101768494,-0.3761604130268097,-0.038881003856658936
1732276345741233200,0.417233154296875,0.19054356217384338,-0.2802894413471222,-0.053794268518686295
1732276345751274500,0.4272744140625,0.15006470680236816,-0.431552529335022,-0.055924732238054276
1732276345761316000,0.437316162109375,0.11597724258899689,-0.3846822679042816,-0.047402869910001755
1732276345771357200,0.447357177734375,0.1149120107293129,-0.3090507388114929,-0.11131685227155685
1732276345781398500,0.4573984375,0.14154283702373505,-0.24939768016338348,-0.09853405505418777
1732276345791440000,0.46743994140625,0.11917294561862946,-0.33781203627586365,-0.08149032294750214
1732276345801481000,0.47748095703125,0.1031944528222084,-0.28348514437675476,-0.11344731599092484
1732276345811522300,0.487522216796875,0.13728190958499908,-0.19826649129390717,-0.16351327300071716
1732276345821563600,0.497563720703125,0.1575213372707367,-0.15033100545406342,-0.17416560649871826
1732276345831604700,0.507604736328125,0.17989122867584229,-0.10665645450353622,-0.15499140322208405
1732276345841646000,0.51764599609375,0.23741380870342255,-0.026763979345560074,-0.10279498994350433
1732276345851687400,0.5276875,0.2981320917606354,0.03608476743102074,-0.0026630824431777
1732276345861728500,0.537728515625,0.3268933892250061,-0.013981183059513569,0.14753477275371552
1732276345871769900,0.547769775390625,0.297066867351532,-0.04593817517161369,0.31690680980682373
1732276345881811000,0.55781103515625,0.2427399754524231,-0.040612008422613144,0.47456130385398865
1732276345891852300,0.567852294921875,0.2011958807706833,-0.08322133123874664,0.5810846090316772
1732276345901893600,0.5778935546875,0.17349982261657715,-0.22915825247764587,0.6354115009307861
1732276345911814400,0.587814453125,0.15006470680236816,-0.41131308674812317,0.6780208349227905
1732276345921745000,0.597744873046875,0.17456506192684174,-0.5925358533859253,0.6982602477073669
1732276345931689000,0.60768896484375,0.23741380870342255,-0.7565817832946777,0.7089125514030457
1732276345941650200,0.617650146484375,0.30345824360847473,-0.840735137462616,0.7302172183990479
1732276345951625700,0.627625732421875,0.3503285050392151,-0.9089100956916809,0.7376738786697388
1732276345961623300,0.637623291015625,0.4025249183177948,-1.0505861043930054,0.6971949934959412
1732276345971643000,0.647642822265625,0.36417654156684875,-0.9110405445098877,0.6386072039604187
1732276345981685200,0.657685302734375,0.2651098668575287,-0.6809502243995667,0.5075835585594177
1732276345991748900,0.667748779296875,0.20758728682994843,-0.30585503578186035,0.35738566517829895
1732276346001832200,0.677832275390625,0.1362166702747345,-0.06937330216169357,0.16138280928134918
1732276346011933000,0.687932861328125,0.07549838721752167,-0.025698747485876083,-0.028228675946593285
1732276346022047700,0.6980478515625,0.057389430701732635,-0.058720968663692474,-0.18694838881492615
1732276346032173000,0.708173095703125,0.1362166702747345,-0.26324570178985596,-0.3424724042415619
1732276346042305500,0.718305419921875,0.26937079429626465,-0.24513675272464752,-0.413843035697937
1732276346052440800,0.72844091796875,0.3940030634403229,-0.08535179495811462,-0.3392767310142517
1732276346062553600,0.7385537109375,0.3258281648159027,0.13834713399410248,-0.3211677670478821
1732276346072595000,0.748594970703125,0.21610915660858154,0.21291345357894897,-0.23914481699466705
1732276346082636300,0.75863623046875,0.1884130984544754,0.21291345357894897,-0.1709699034690857
1732276346092677400,0.768677490234375,0.15965180099010468,0.059519894421100616,-0.17842653393745422
1732276346102718700,0.77871875,0.10106398165225983,-0.14500483870506287,-0.14327384531497955
1732276346112759800,0.788759765625,0.040345702320337296,-0.4647079110145569,-0.10172975063323975
1732276346122801200,0.79880126953125,0.028628136962652206,-0.7725602388381958,-0.11877348273992538
1732276346132842500,0.808842529296875,0.07549838721752167,-0.662841260433197,-0.020772043615579605
1732276346142883600,0.818883544921875,0.04673709720373154,-0.4059869349002838,0.1496652364730835
1732276346152925000,0.828925048828125,-0.016111649572849274,-0.2483324557542801,0.2870802879333496
1732276346162965500,0.838965576171875,0.06697652488946915,-0.2163754552602768,0.37762510776519775
1732276346173006000,0.849006103515625,0.21504391729831696,-0.20891882479190826,0.43088674545288086
1732276346183046700,0.859046630859375,0.29174068570137024,-0.14820054173469543,0.47349607944488525
1732276346193087500,0.86908740234375,0.27789267897605896,-0.04593817517161369,0.48308318853378296
1732276346203128300,0.87912841796875,0.2097177505493164,0.0030625448562204838,0.4553871154785156
1732276346213169200,0.889169189453125,0.17563030123710632,-0.1300915777683258,0.35525521636009216
1732276346223129000,0.899129150390625,0.2768274247646332,-0.39107367396354675,0.15712186694145203
1732276346233095700,0.909095703125,0.3194367587566376,-0.278158962726593,0.045272402465343475
1732276346243067000,0.91906689453125,0.24806614220142365,-0.2685718834400177,-0.018641578033566475
1732276346253050000,0.929050048828125,0.18095645308494568,-0.18867939710617065,0.0857512578368187
1732276346263042000,0.9390419921875,0.023301972076296806,-0.07256899774074554,0.2860150635242462
1732276346273049600,0.949049560546875,-0.10665645450353622,-0.13754820823669434,0.5161054134368896
1732276346283068400,0.959068359375,-0.08322133123874664,-0.2664414048194885,0.7153039574623108
1732276346293103900,0.969103759765625,-0.022503048181533813,-0.3324858546257019,0.8410014510154724
1732276346303150800,0.97915087890625,0.07762885838747025,-0.30692026019096375,0.8963935971260071
1732276346313213200,0.989213134765625,0.14793424308300018,-0.25365862250328064,0.8612409234046936
1732276346323284700,0.99928466796875,0.21823962032794952,-0.3772256374359131,0.7206301689147949
1732276346333368800,1.009368896484375,0.36311131715774536,-0.475360244512558,0.5991935729980469
1732276346343458300,1.019458251953125,0.297066867351532,-0.4732297658920288,0.437278151512146
1732276346353555700,1.0295556640625,0.1894783228635788,-0.4262263774871826,0.4021254777908325
1732276346363658800,1.03965869140625,0.08402025699615479,-0.35805144906044006,0.521431565284729
1732276346373764400,1.049764404296875,-0.031024912372231483,-0.1950708031654358,0.6386072039604187
1732276346383870200,1.0598701171875,-0.021437814459204674,-0.15991811454296112,0.6418029069900513
1732276346393915000,1.069914794921875,0.08188978582620621,-0.20039696991443634,0.5352795720100403
1732276346403955700,1.079955810546875,0.07975932210683823,-0.08854749798774719,0.45219141244888306
1732276346413996300,1.089996337890625,0.0030625448562204838,0.022236740216612816,0.36803799867630005
1732276346424037000,1.100037109375,-0.057655736804008484,0.0829550251364708,0.20079642534255981
1732276346434078000,1.110077880859375,-0.041677240282297134,0.061650361865758896,0.010119713842868805
1732276346444118800,1.120118896484375,-0.05659050494432449,0.18202169239521027,-0.10812114924192429
1732276346454160000,1.130159912109375,-0.1087869256734848,0.2619141638278961,-0.2252967804670334
1732276346464201000,1.140200927734375,-0.0981345921754837,0.2533923089504242,-0.3286243975162506
1732276346474242000,1.150241943359375,-0.06937330216169357,0.2619141638278961,-0.4063864052295685
1732276346484283400,1.160283447265625,-0.043807707726955414,0.2533923089504242,-0.42236489057540894
1732276346494324700,1.17032470703125,-0.00226362026296556,0.20439158380031586,-0.36697277426719666
1732276346504366300,1.180366455078125,0.017975807189941406,0.10532491654157639,-0.25192761421203613
1732276346514408000,1.190407958984375,0.027562905102968216,-0.03848154470324516,-0.1070559173822403
1732276346524449500,1.200449462890625,0.044606633484363556,-0.19613602757453918,0.045272402465343475
1732276346534491100,1.2104912109375,0.061650361865758896,-0.33887726068496704,0.1720351278781891
1732276346544533000,1.220532958984375,0.05632419511675835,-0.4304873049259186,0.2551233172416687
1732276346554574600,1.23057470703125,0.031823836266994476,-0.4294220507144928,0.2764279842376709
1732276346564496100,1.24049609375,0.015845341607928276,-0.343138188123703,0.24766667187213898
1732276346574427100,1.25042724609375,0.010519175790250301,-0.21317975223064423,0.18694838881492615
1732276346584371700,1.260371826171875,0.022236740216612816,-0.08641702681779861,0.10812114924192429
1732276346594333200,1.270333251953125,0.042476166039705276,0.019041040912270546,0.029293907806277275
1732276346604314000,1.280314208984375,0.07975932210683823,0.08934641629457474,-0.039946239441633224
1732276346614316300,1.29031640625,0.11810771375894547,0.13728190958499908,-0.06870753318071365
1732276346624340200,1.30034033203125,0.15006470680236816,0.1681736707687378,-0.046337638050317764
1732276346634385700,1.3103857421875,0.18202169239521027,0.16071702539920807,0.017576344311237335
1732276346644451800,1.320451904296875,0.21717438101768494,0.1042596846818924,0.09746882319450378
1732276346654536700,1.33053662109375,0.20545682311058044,0.017975807189941406,0.19547025859355927
1732276346664636000,1.340635986328125,0.19160878658294678,-0.15352670848369598,0.30199354887008667
1732276346674745300,1.350745361328125,0.17669552564620972,-0.4198349714279175,0.4468652606010437
1732276346684860400,1.3608603515625,0.22676147520542145,-0.8961272835731506,0.6236939430236816
1732276346694977500,1.3709775390625,0.22356578707695007,-1.2050448656082153,0.9187634587287903
1732276346705077000,1.381076904296875,0.06804175674915314,-1.2455236911773682,1.3523132801055908
1732276346715115500,1.391115478515625,0.06591129302978516,-1.3658950328826904,1.7997112274169922
1732276346725154000,1.401154052734375,0.17136935889720917,-1.3882648944854736,2.085193634033203
1732276346735192800,1.41119287109375,0.2757622003555298,-1.29132878780365,2.1970431804656982
1732276346745236200,1.421236328125,0.36311131715774536,-1.1262176036834717,2.2290000915527344
1732276346755282000,1.431281982421875,0.4142425060272217,-0.9440627694129944,2.1863908767700195
1732276346765328600,1.44132861328125,0.4344819188117981,-0.8109086155891418,2.1128897666931152
1732276346775362300,1.4513623046875,0.43980807065963745,-0.7874734997749329,2.1118245124816895
1732276346785396200,1.461396240234375,0.423829585313797,-0.8503222465515137,2.249239444732666
1732276346795430700,1.4714306640625,0.4675041437149048,-1.1901315450668335,2.474003791809082
1732276346805466000,1.481466064453125,0.49200451374053955,-1.4820054769515991,2.7893126010894775
1732276346815502600,1.491502685546875,0.23847904801368713,-1.4138305187225342,3.2186014652252197
1732276346825544200,1.501544189453125,0.1468690037727356,-1.6077029705047607,3.5509543418884277
1732276346835588600,1.511588623046875,0.21930484473705292,-1.7919882535934448,3.7087419033050537
1732276346845634000,1.521634033203125,0.22463101148605347,-1.898511528968811,3.796091079711914
1732276346855680000,1.531679931640625,0.1575213372707367,-1.9975782632827759,3.978245973587036
1732276346865726200,1.541726318359375,0.07656362652778625,-2.0242090225219727,4.274380683898926
1732276346875777300,1.55177734375,0.007323476951569319,-2.055100917816162,4.634429454803467
1732276346885832400,1.56183251953125,-0.060851436108350754,-1.8910548686981201,5.148936748504639
1732276346895891000,1.571890869140625,-0.058720968663692474,-1.2178276777267456,5.896730422973633
1732276346905950000,1.581949951171875,0.045671865344047546,-0.235549658536911,6.5816755294799805
1732276346915953200,1.591953125,0.21291345357894897,0.619832456111908,6.691394329071045
1732276346925957400,1.601957275390625,0.292805939912796,1.1684274673461914,6.250388145446777
1732276346935964000,1.6119638671875,0.31198012828826904,1.041664719581604,6.193930625915527
1732276346945974300,1.621974365234375,0.6528546810150146,1.6488475799560547,6.483674049377441
1732276346955989200,1.6319892578125,1.2067759037017822,2.568143606185913,6.820287704467773
1732276346966009900,1.642009765625,1.2813421487808228,1.5252805948257446,6.329215049743652
1732276346976037000,1.652037109375,0.25978371500968933,-2.654827117919922,4.215792655944824
1732276346986075400,1.662075439453125,-0.19080986082553864,-6.3353400230407715,2.577331304550171
1732276346996120000,1.6721201171875,-0.08002562820911407,-6.530277729034424,1.550446629524231
1732276347006175200,1.68217529296875,-0.6872084736824036,-5.319108009338379,0.3424724042415619
1732276347016235300,1.6922353515625,-0.9023855328559875,-3.2790534496307373,-0.843131959438324
1732276347026304300,1.70230419921875,-0.5806851387023926,-1.4766793251037598,-1.2906630039215088
1732276347036375600,1.71237548828125,-0.2163754552602768,0.2523270845413208,-1.1415303945541382
1732276347046452700,1.72245263671875,-0.21317975223064423,1.6222167015075684,-0.568301796913147
1732276347056518000,1.732517822265625,-0.2802894413471222,1.8640246391296387,-0.24979715049266815
1732276347066587100,1.742587158203125,-0.17057043313980103,1.585998773574829,-0.2860150635242462
1732276347076600800,1.752600830078125,-0.08215609937906265,0.7955959439277649,-0.01118494663387537
1732276347086620700,1.76262060546875,0.20226112008094788,0.24806614220142365,0.1912093311548233
1732276347096642000,1.77264208984375,0.3599156141281128,0.17669552564620972,0.20079642534255981
1732276347106670600,1.782670654296875,0.38761165738105774,0.40678587555885315,0.17416560649871826
1732276347116706800,1.792706787109375,0.34287187457084656,0.6943987607955933,0.1262301206588745
1732276347126750000,1.80275,0.1351514458656311,0.9777507781982422,0.037815771996974945
1732276347136800300,1.81280029296875,-0.08215609937906265,1.1268833875656128,-0.048468101769685745
1732276347146857000,1.82285693359375,-0.11304785311222076,1.08640456199646,-0.1390129029750824
1732276347156918800,1.832918701171875,0.031823836266994476,0.9660332202911377,-0.20612259209156036
1732276347166985200,1.842985107421875,0.11704248189926147,0.7678998708724976,-0.26151469349861145
1732276347177043000,1.85304296875,0.17669552564620972,0.6017234921455383,-0.3009283244609833
1732276347187103500,1.863103515625,0.19586972892284393,0.5282224416732788,-0.24340574443340302
1732276347197166000,1.873166015625,0.13195574283599854,0.45152565836906433,-0.19014409184455872
1732276347207229700,1.883229736328125,-0.008655018173158169,0.4025249183177948,-0.22742724418640137
1732276347217293600,1.89329345703125,-0.040612008422613144,0.37482887506484985,-0.2764279842376709
1732276347227339500,1.903339599609375,-0.036351077258586884,0.3716331720352173,-0.2561885416507721
1732276347237380900,1.913380859375,-0.07150376588106155,0.44832995533943176,-0.22103585302829742
1732276347247422000,1.923421875,-0.1205044835805893,0.5420704483985901,-0.19973118603229523
1732276347257463300,1.93346337890625,-0.19933173060417175,0.5910711884498596,-0.15925233066082
1732276347267504600,1.943504638671875,-0.21744069457054138,0.634745717048645,-0.10066451877355576
1732276347277545700,1.953545654296875,-0.1940055638551712,0.6656374931335449,-0.09320788830518723
1732276347287587000,1.963587158203125,-0.17589659988880157,0.6997249722480774,-0.15605664253234863
1732276347297628400,1.97362841796875,-0.20039696991443634,0.7806826233863831,-0.2870802879333496
1732276347307669200,1.983669189453125,-0.23128871619701385,0.9585765600204468,-0.46071329712867737
1732276347317710300,1.99371044921875,-0.2600499987602234,1.1322095394134521,-0.6694989800453186
1732276347327751400,2.00375146484375,-0.25259336829185486,1.08640456199646,-0.9315462708473206
1732276347337792500,2.01379248046875,-0.14926578104496002,0.8935973644256592,-1.1457912921905518
1732276347347833600,2.02383349609375,-0.061916667968034744,0.6528546810150146,-1.2704235315322876
1732276347357874700,2.033874755859375,-0.03954677656292915,0.5111786723136902,-1.2469884157180786
1732276347367915800,2.043915771484375,-0.09493889659643173,0.5228962898254395,-1.0989210605621338
1732276347377956900,2.053956787109375,-0.18867939710617065,0.6901378631591797,-0.9560466408729553
1732276347387998200,2.063998291015625,-0.29626792669296265,0.8435314297676086,-0.9720251560211182
1732276347398039600,2.07403955078125,-0.34952959418296814,0.8978582620620728,-1.1298127174377441
1732276347408081000,2.084080810546875,-0.33994248509407043,1.1013177633285522,-1.3481855392456055
1732276347418122200,2.094122314453125,-0.3005288541316986,1.3026468753814697,-1.5601669549942017
1732276347428163600,2.10416357421875,-0.21850591897964478,1.2887988090515137,-1.7476478815078735
1732276347438205000,2.114204833984375,-0.11304785311222076,1.0842740535736084,-1.9127590656280518
1732276347448246300,2.124246337890625,-0.029959678649902344,0.7966611385345459,-2.0160865783691406
1732276347458287600,2.13428759765625,0.030758604407310486,0.5058525204658508,-2.010760545730591
1732276347468329000,2.144328857421875,0.029693370684981346,0.292805939912796,-1.8903892040252686
1732276347478370300,2.154370361328125,-0.018242115154862404,0.21504391729831696,-1.6858644485473633
1732276347488411600,2.16441162109375,-0.12156971544027328,0.20226112008094788,-1.43446946144104
1732276347498453000,2.174452880859375,-0.21957115828990936,0.26830556988716125,-1.2810758352279663
1732276347508494300,2.184494384765625,-0.2909417748451233,0.4121120274066925,-1.3322070837020874
1732276347518535700,2.19453564453125,-0.3218335211277008,0.574027419090271,-1.5622973442077637
1732276347528577000,2.204576904296875,-0.2994636297225952,0.6943987607955933,-1.9415203332901
1732276347538618400,2.214618408203125,-0.237680122256279,0.6965292692184448,-2.340982675552368
1732276347548659500,2.224659423828125,-0.13648298382759094,0.5676360726356506,-2.5742688179016113
1732276347558700800,2.23470068359375,-0.024633513763546944,0.27895790338516235,-2.6339218616485596
1732276347568742000,2.244741943359375,0.15219517052173615,0.011584409512579441,-2.5263333320617676
1732276347578783000,2.254782958984375,0.34074142575263977,-0.2568543255329132,-2.3686788082122803
1732276347588823800,2.26482373046875,0.46217799186706543,-0.3314206302165985,-2.2120895385742188
1732276347598864600,2.27486474609375,0.45046040415763855,-0.27389803528785706,-2.0544350147247314
1732276347608905500,2.284905517578125,0.30345824360847473,-0.13861344754695892,-1.9287375211715698
1732276347618946300,2.2949462890625,0.10639014840126038,-0.0011983871227130294,-1.8286056518554688
1732276347628987400,2.3049873046875,-0.04274247586727142,0.12876003980636597,-1.7306041717529297
1732276347639028500,2.315028564453125,-0.0981345921754837,0.2938711643218994,-1.5910587310791016
1732276347649069600,2.325069580078125,-0.05978620424866676,0.42915576696395874,-1.4706873893737793
1732276347659111000,2.33511083984375,0.048867564648389816,0.5058525204658508,-1.3684250116348267
1732276347669152300,2.34515234375,0.11917294561862946,0.6358109712600708,-1.3236851692199707
1732276347679193900,2.35519384765625,0.17136935889720917,0.7604432106018066,-1.3311418294906616
1732276347689147400,2.3651474609375,0.18095645308494568,0.8137048482894897,-1.322619915008545
1732276347699108000,2.375108154296875,0.1777607649564743,0.7998568415641785,-1.3013153076171875
1732276347709079000,2.3850791015625,0.20226112008094788,0.7924002408981323,-1.244857907295227
1732276347719062000,2.39506201171875,0.26724034547805786,0.934076189994812,-1.1202256679534912
1732276347729059600,2.4050595703125,0.33008909225463867,1.065099835395813,-0.9880036115646362
1732276347739072500,2.415072509765625,0.20865251123905182,0.9884030818939209,-0.8133054375648499
1732276347749101300,2.425101318359375,-0.00226362026296556,0.8914669156074524,-0.46284374594688416
1732276347759146000,2.43514599609375,-0.1407439112663269,0.8179658055305481,-0.017576344311237335
1732276347769205800,2.445205810546875,-0.20998406410217285,0.5591141581535339,0.40106022357940674
1732276347779279000,2.455279052734375,-0.2366148829460144,0.1585865616798401,0.7685656547546387
1732276347789363700,2.46536376953125,-0.2259625494480133,-0.13754820823669434,1.136070966720581
1732276347799457800,2.475457763671875,-0.21104928851127625,-0.4540555775165558,1.433271050453186
1732276347809559300,2.485559326171875,-0.17483137547969818,-0.7192986011505127,1.7645585536956787
1732276347819665200,2.4956650390625,-0.1833532303571701,-0.8460613489151001,2.118215799331665
1732276347829772500,2.5057724609375,-0.19080986082553864,-0.9078448414802551,2.356827974319458
1732276347839856400,2.5158564453125,-0.14820054173469543,-0.9973244071006775,2.502764940261841
1732276347849897700,2.525897705078125,-0.13435252010822296,-1.2380670309066772,2.5752007961273193
1732276347859938800,2.535938720703125,-0.1205044835805893,-1.3499165773391724,2.810617446899414
1732276347869980200,2.545980224609375,-0.06298190355300903,-1.2593717575073242,3.3272552490234375
1732276347880021200,2.556021240234375,-0.0768299326300621,-1.1198261976242065,3.9260494709014893
1732276347890062600,2.5660625,-0.0778951644897461,-0.8279523849487305,4.5609283447265625
1732276347900104000,2.57610400390625,0.043541401624679565,-0.6692326664924622,5.134023666381836
1732276347910145000,2.58614501953125,0.292805939912796,-1.0718907117843628,5.619770050048828
1732276347920185900,2.596185791015625,0.57296222448349,-1.9720126390457153,6.07995080947876
1732276347930227000,2.60622705078125,0.8222267627716064,-2.6196742057800293,6.57421875
1732276347940268000,2.61626806640625,0.8467270731925964,-2.6090219020843506,7.204836845397949
1732276347950309000,2.62630908203125,0.5133091807365417,-1.5214190483093262,7.32307767868042
1732276347960350200,2.63635009765625,0.2864145338535309,-2.0721445083618164,4.1444220542907715
1732276347970391300,2.646391357421875,0.11917294561862946,-0.9888025522232056,-0.38827744126319885
1732276347980432600,2.6564326171875,0.09467258304357529,0.5655055642127991,-2.239785671234131
1732276347990473700,2.6664736328125,-0.08535179495811462,0.8669665455818176,-2.518876552581787
1732276348000515000,2.67651513671875,-0.2046578973531723,0.9979901909828186,-1.773213505744934
1732276348010556400,2.686556396484375,-0.11624355614185333,1.0682955980300903,-0.7621742486953735
1732276348020597800,2.69659765625,0.03928046673536301,0.7668346166610718,-0.053794268518686295
1732276348030639400,2.706639404296875,0.1564560979604721,0.2736317217350006,0.4074516296386719
1732276348040680700,2.7166806640625,0.19480448961257935,0.019041040912270546,0.5789541602134705
1732276348050722000,2.72672216796875,0.13834713399410248,0.07549838721752167,0.4809527099132538
1732276348060763400,2.736763427734375,-0.018242115154862404,0.19373925030231476,0.20718781650066376
1732276348070805000,2.746804931640625,-0.2270277887582779,0.27789267897605896,-0.11983871459960938
1732276348080846300,2.756846435546875,-0.4070521593093872,0.2821536064147949,-0.4074516296386719
1732276348090887700,2.7668876953125,-0.5146406888961792,0.23421810567378998,-0.6503247618675232
1732276348100928800,2.7769287109375,-0.5444672107696533,0.17563030123710632,-0.882545530796051
1732276348110970000,2.78697021484375,-0.5242277979850769,0.13941237330436707,-1.0616378784179688
1732276348121011200,2.79701123046875,-0.46457475423812866,0.08188978582620621,-1.1457912921905518
1732276348131052300,2.80705224609375,-0.38042134046554565,-0.011850717477500439,-1.137269377708435
1732276348141093400,2.81709326171875,-0.2930722236633301,-0.040612008422613144,-1.0370043516159058
1732276348151122400,2.827122314453125,-0.25152814388275146,-0.08002562820911407,-0.9453943371772766
1732276348161057500,2.8370576171875,-0.26324570178985596,-0.16098333895206451,-0.8718932271003723
1732276348171001900,2.847001953125,-0.29520270228385925,-0.2472672164440155,-0.8218272924423218
1732276348180958500,2.85695849609375,-0.31650736927986145,-0.4849473237991333,-0.9698946475982666
1732276348190930400,2.866930419921875,-0.32715970277786255,-0.6532541513442993,-1.2001181840896606
1732276348200915500,2.87691552734375,-0.32715970277786255,-0.5573831796646118,-1.2576407194137573
1732276348210919700,2.886919677734375,-0.3836170434951782,-0.343138188123703,-1.3343374729156494
1732276348220944000,2.89694384765625,-0.515705943107605,-0.14713531732559204,-1.6006457805633545
1732276348230987800,2.90698779296875,-0.623294472694397,0.031823836266994476,-1.833931803703308
1732276348241051000,2.91705078125,-0.6360772848129272,0.14154283702373505,-1.8946501016616821
1732276348251126500,2.92712646484375,-0.6062507629394531,0.03288906812667847,-1.8712149858474731
1732276348261217500,2.937217529296875,-0.5679023265838623,-0.33674678206443787,-1.8328665494918823
1732276348271321600,2.947321533203125,-0.4805532395839691,-0.6181014776229858,-1.565493106842041
1732276348281435400,2.957435302734375,-0.4517919421195984,-0.8705616593360901,-1.2139661312103271
1732276348291555800,2.967555908203125,-0.4613790512084961,-1.1358046531677246,-1.033808708190918
1732276348301635600,2.977635498046875,-0.4177044928073883,-1.330742359161377,-1.028482437133789
1732276348311676000,2.987676025390625,-0.32929015159606934,-1.3424599170684814,-1.1191604137420654
1732276348321721000,2.99772119140625,-0.2696371078491211,-1.2188929319381714,-1.3109023571014404
1732276348331770600,3.0077705078125,-0.25898477435112,-1.0484555959701538,-1.5622973442077637
1732276348341824300,3.01782421875,-0.2770937383174896,-1.0069115161895752,-1.8499102592468262
1732276348351842600,3.027842529296875,-0.2664414048194885,-0.9174319505691528,-1.9788035154342651
1732276348361866800,3.03786669921875,-0.22383208572864532,-0.5744268894195557,-1.757235050201416
1732276348371896800,3.047896728515625,-0.2259625494480133,-0.343138188123703,-1.488796353340149
1732276348381933300,3.057933349609375,-0.23874534666538239,-0.36870378255844116,-1.3790773153305054
1732276348391975700,3.0679755859375,-0.19933173060417175,-0.4379439353942871,-1.297054409980774
1732276348402022000,3.07802197265625,-0.15991811454296112,-0.555252730846405,-1.2235532999038696
1732276348412068600,3.088068603515625,-0.15778763592243195,-0.7427337169647217,-1.1969224214553833
1732276348422121000,3.098120849609375,-0.16630950570106506,-0.985606849193573,-1.2576407194137573
1732276348432177700,3.108177734375,-0.09067796170711517,-0.9749545454978943,-1.2022485733032227
1732276348442238500,3.118238525390625,0.038215234875679016,-0.6660369634628296,-0.8910674452781677
1732276348452253000,3.1282529296875,0.07017222791910172,-0.3207682967185974,-0.6268896460533142
1732276348462273500,3.1382734375,0.0712374597787857,-0.11091738939285278,-0.5193011164665222
1732276348472300500,3.148300537109375,0.09147688746452332,0.040345702320337296,-0.44366955757141113
1732276348482334500,3.15833447265625,0.10639014840126038,0.10532491654157639,-0.3925383687019348
1732276348492375000,3.168375,0.13834713399410248,0.06591129302978516,-0.32436347007751465
1732276348502422300,3.17842236328125,0.1788259893655777,0.008388710208237171,-0.18481792509555817
1732276348512470800,3.188470703125,0.2214353084564209,-0.0011983871227130294,0.023967742919921875
1732276348522525000,3.19852490234375,0.2619141638278961,0.029693370684981346,0.24021004140377045
1732276348532584200,3.208584228515625,0.28108835220336914,0.08508548885583878,0.41171255707740784
1732276348542647300,3.218647216796875,0.28961023688316345,0.15219517052173615,0.5480623841285706
1732276348552713500,3.22871337890625,0.30984964966773987,0.19373925030231476,0.6716294288635254
1732276348562781700,3.23878173828125,0.3481980562210083,0.18308693170547485,0.8143706321716309
1732276348572850700,3.2488505859375,0.40998154878616333,0.16604319214820862,1.0242215394973755
1732276348582909700,3.25890966796875,0.5047873258590698,0.28961023688316345,1.325682520866394
1732276348592950800,3.26895068359375,0.6177020072937012,0.5378095507621765,1.6686875820159912
1732276348602992400,3.278992431640625,0.7178338766098022,0.933010995388031,1.9893226623535156
1732276348612913400,3.288913330078125,0.825422465801239,1.507171630859375,2.3046317100524902
1732276348622844200,3.29884423828125,0.95644611120224,2.1867902278900146,2.6082229614257812
1732276348632788700,3.308788818359375,1.0832087993621826,2.868539333343506,2.894770860671997
1732276348642749200,3.318749267578125,1.1833407878875732,3.40541672706604,3.1866445541381836
1732276348652729000,3.32872900390625,1.2525808811187744,3.4597437381744385,3.5978245735168457
1732276348662725600,3.3387255859375,1.4549751281738281,3.2573494911193848,4.498079776763916
1732276348672744700,3.34874462890625,1.85337233543396,2.9494969844818115,6.7031121253967285
1732276348682781200,3.35878125,1.7820017337799072,1.1950583457946777,7.94836950302124
1732276348692839400,3.36883935546875,1.0214253664016724,-2.0401875972747803,4.5705156326293945
1732276348702913000,3.3789130859375,0.44300377368927,-1.6886606216430664,-0.15179570019245148
1732276348713005000,3.389005126953125,0.1585865616798401,-0.7789516448974609,-3.1249942779541016
1732276348723107800,3.39910791015625,-0.38255181908607483,-0.34846433997154236,-4.417121887207031
1732276348733223400,3.409223388671875,-0.7479267120361328,0.060585130006074905,-4.297815799713135
1732276348743343400,3.41934326171875,-0.769231379032135,0.6219629049301147,-2.7553584575653076
1732276348753469200,3.42946923828125,-0.48587942123413086,1.0097078084945679,-0.8708279728889465
1732276348763532000,3.439531982421875,-0.14393961429595947,0.6773550510406494,0.42129966616630554
1732276348773598700,3.4495986328125,0.17563030123710632,0.23741380870342255,1.194658875465393
1732276348783668500,3.45966845703125,0.3620460629463196,-0.047003407031297684,1.531272530555725
1732276348793739800,3.46973974609375,0.3375457227230072,-0.2163754552602768,1.4694889783859253
1732276348803811000,3.47981103515625,0.1585865616798401,-0.2483324557542801,1.1488537788391113
1732276348813858600,3.489858642578125,-0.10772168636322021,-0.25365862250328064,0.667368471622467
1732276348823899100,3.499899169921875,-0.3740299344062805,-0.3516600430011749,0.1496652364730835
1732276348833939700,3.509939697265625,-0.5657718777656555,-0.4508598744869232,-0.3009283244609833
1732276348843980300,3.519980224609375,-0.6754909157752991,-0.44659894704818726,-0.6226286888122559
1732276348854020900,3.530020751953125,-0.7340787053108215,-0.3559209704399109,-0.8367405533790588
1732276348864061700,3.540061767578125,-0.7362091541290283,-0.19720126688480377,-1.002916932106018
1732276348874102500,3.5501025390625,-0.7106435894966125,-0.037416309118270874,-1.1947920322418213
1732276348884143600,3.5601435546875,-0.6509905457496643,0.0829550251364708,-1.3822729587554932
1732276348894184700,3.570184814453125,-0.5838808417320251,0.11810771375894547,-1.512231469154358
1732276348904226000,3.58022607421875,-0.5284887552261353,-0.019307348877191544,-1.5452536344528198
1732276348914177300,3.59017724609375,-0.4496614933013916,-0.2813546657562256,-1.397186279296875
1732276348924136200,3.60013623046875,-0.35911667346954346,-0.6053186655044556,-1.1085081100463867
1732276348934105000,3.61010498046875,-0.28348514437675476,-0.9270190596580505,-0.8420667052268982
1732276348944087000,3.620087158203125,-0.1940055638551712,-1.1539136171340942,-0.6428681015968323
1732276348954083600,3.63008349609375,-0.1205044835805893,-1.2007839679718018,-0.49373549222946167
1732276348964096000,3.640095947265625,-0.10133028775453568,-1.1198261976242065,-0.4170387387275696
1732276348974124800,3.650124755859375,-0.1300915777683258,-0.9653674364089966,-0.42129966616630554
1732276348984170000,3.660169921875,-0.15991811454296112,-0.7608426809310913,-0.48521363735198975
1732276348994230300,3.670230224609375,-0.1844184696674347,-0.5137086510658264,-0.6013240218162537
1732276349004305000,3.680304931640625,-0.20678836107254028,-0.32822492718696594,-0.7451304793357849
1732276349014391600,3.6903916015625,-0.2270277887582779,-0.20146219432353973,-0.8335448503494263
1732276349024488200,3.70048828125,-0.2557890713214874,-0.10452599078416824,-0.7994573712348938
1732276349034591700,3.710591796875,-0.2920069992542267,-0.04913387447595596,-0.6567161679267883
1732276349044700200,3.7207001953125,-0.35698622465133667,-0.0991998240351677,-0.5182358622550964
1732276349054809900,3.730809814453125,-0.36018192768096924,-0.10985215753316879,-0.3307548463344574
1732276349064890600,3.740890625,-0.20998406410217285,-0.00226362026296556,-0.043141938745975494
1732276349074931700,3.750931640625,-0.12689588963985443,-0.0033288532868027687,0.1070559173822403
1732276349084972500,3.76097265625,-0.07469946891069412,-0.040612008422613144,0.12409964948892593
1732276349094985200,3.770985107421875,-0.020372580736875534,-0.010785484686493874,0.10172975063323975
1732276349104985900,3.78098583984375,-0.010785484686493874,0.0712374597787857,0.051663801074028015
1732276349114985500,3.7909853515625,-0.050199106335639954,0.1671084314584732,-0.031424373388290405
1732276349124986600,3.800986572265625,-0.1194392517209053,0.1894783228635788,-0.10492545366287231
1732276349134990600,3.810990478515625,-0.14926578104496002,0.1894783228635788,-0.1059906855225563
1732276349144999000,3.8209990234375,-0.1737661361694336,0.15112993121147156,-0.09214265644550323
1732276349155012400,3.831012451171875,-0.15565717220306396,0.22889193892478943,-0.032489608973264694
1732276349165032200,3.8410322265625,-0.08215609937906265,0.34287187457084656,0.07083799690008163
1732276349175059000,3.851058837890625,-0.07363422960042953,0.3066539466381073,0.19973118603229523
1732276349185096200,3.86109619140625,-0.1716356724500656,0.2651098668575287,0.27003657817840576
1732276349195142000,3.871141845703125,-0.28348514437675476,0.23847904801368713,0.2870802879333496
1732276349205194000,3.881194091796875,-0.3772256374359131,0.2544575333595276,0.24021004140377045
1732276349215252700,3.891252685546875,-0.4155740439891815,0.3268933892250061,0.15073047578334808
1732276349225316000,3.901316162109375,-0.4102478623390198,0.40678587555885315,0.039946239441633224
1732276349235383000,3.911383056640625,-0.3974650800228119,0.4536561071872711,-0.08149032294750214
1732276349245452500,3.92145263671875,-0.3995955288410187,0.4856131076812744,-0.1816222369670868
1732276349255527700,3.931527587890625,-0.42196542024612427,0.5527228116989136,-0.245536208152771
1732276349265604600,3.9416044921875,-0.4475310146808624,0.6826812028884888,-0.2881455421447754
1732276349275657500,3.951657470703125,-0.47416186332702637,0.8573794364929199,-0.3595161437988281
1732276349285677300,3.96167724609375,-0.4166392683982849,1.0832087993621826,-0.3957340717315674
1732276349295698200,3.9716982421875,-0.33781203627586365,1.2461894750595093,-0.418103963136673
1732276349305725700,3.9817255859375,-0.2994636297225952,1.24086332321167,-0.45112618803977966
1732276349315759600,3.991759521484375,-0.28455036878585815,1.1141005754470825,-0.4916050434112549
1732276349325800000,4.001800048828125,-0.2877460718154907,0.8243572115898132,-0.4031907021999359
1732276349335845000,4.01184521484375,-0.30478981137275696,0.4643084406852722,-0.22849248349666595
1732276349345893000,4.02189306640625,-0.34952959418296814,0.12130340933799744,-0.039946239441633224
1732276349355942000,4.03194189453125,-0.3729647099971771,-0.10026505589485168,0.09107742458581924
1732276349365991400,4.041991455078125,-0.32715970277786255,-0.1844184696674347,0.17310036718845367
1732276349376041200,4.052041259765625,-0.26218047738075256,-0.15565717220306396,0.2029268890619278
1732276349386090000,4.062090087890625,-0.20891882479190826,-0.1205044835805893,0.18375270068645477
1732276349396131800,4.0721318359375,-0.13541774451732635,-0.067242830991745,0.16457849740982056
1732276349406173000,4.0821728515625,-0.028894444927573204,-0.054460037499666214,0.3222329914569855
1732276349416213800,4.0922138671875,0.060585130006074905,-0.03954677656292915,0.6375419497489929
1732276349426254800,4.1022548828125,0.12236864119768143,-0.07043853402137756,1.0231562852859497
1732276349436296000,4.1122958984375,0.1362166702747345,-0.19294032454490662,1.3746832609176636
1732276349446341600,4.122341552734375,0.10745538026094437,-0.4294220507144928,1.634600043296814
1732276349456379000,4.13237890625,0.06910699605941772,-0.6702978610992432,1.7986459732055664
1732276349466421000,4.1424208984375,0.035019535571336746,-0.793864905834198,1.8700165748596191
1732276349476461600,4.152461669921875,0.007323476951569319,-0.7161028981208801,1.8604295253753662
1732276349486507000,4.162507080078125,0.033954303711652756,-0.4636426866054535,1.8199505805969238
1732276349496544000,4.1725439453125,0.10745538026094437,-0.10559122264385223,1.6899921894073486
1732276349506585900,4.1825859375,0.16497796773910522,0.2640446424484253,1.464162826538086
1732276349516626700,4.192626708984375,0.18628261983394623,0.5410051941871643,1.235137701034546
1732276349526667300,4.202667236328125,0.1671084314584732,0.7071815729141235,1.0391348600387573
1732276349536708000,4.2127080078125,0.12236864119768143,0.6858769059181213,0.8750889301300049
1732276349546753500,4.22275341796875,0.048867564648389816,0.39932921528816223,0.7184996604919434
1732276349556791800,4.232791748046875,-0.033155377954244614,-0.019307348877191544,0.5555190443992615
1732276349566835000,4.2428349609375,-0.04593817517161369,-0.30585503578186035,0.3627118468284607
1732276349576882400,4.25288232421875,0.030758604407310486,-0.32396399974823,0.18268746137619019
1732276349586934300,4.262934326171875,0.09999874979257584,-0.1844184696674347,0.030359141528606415
1732276349596989700,4.27298974609375,0.10212921351194382,-0.06937330216169357,-0.10812114924192429
1732276349607048000,4.2830478515625,0.08082455396652222,-0.048068638890981674,-0.2146444469690323
1732276349617108500,4.2931083984375,0.07549838721752167,-0.050199106335639954,-0.245536208152771
1732276349627170000,4.303170166015625,0.06591129302978516,-0.008655018173158169,-0.21570968627929688
1732276349637232000,4.313232177734375,0.03608476743102074,0.05632419511675835,-0.15925233066082
1732276349647283200,4.323283203125,-0.007589785382151604,0.09467258304357529,-0.11983871459960938
1732276349657325000,4.333324951171875,-0.03848154470324516,0.10212921351194382,-0.12409964948892593
1732276349667366000,4.343365966796875,-0.048068638890981674,0.11065108329057693,-0.1720351278781891
1732276349677406500,4.353406494140625,-0.027829213067889214,0.11065108329057693,-0.24021004140377045
1732276349687447300,4.363447265625,0.007323476951569319,0.07869409024715424,-0.2892107665538788
1732276349697488100,4.373488037109375,0.027562905102968216,0.011584409512579441,-0.28068891167640686
1732276349707529000,4.383529052734375,0.031823836266994476,-0.05232957378029823,-0.20718781650066376
1732276349717569800,4.39356982421875,0.001997311832383275,-0.10026505589485168,-0.09959928691387177
1732276349727611000,4.40361083984375,-0.048068638890981674,-0.12476541846990585,-0.0079892473295331
1732276349737652000,4.41365185546875,-0.0981345921754837,-0.10559122264385223,0.044207170605659485
1732276349747693000,4.423693115234375,-0.1396786868572235,-0.051264338195323944,0.061250898987054825
1732276349757734400,4.433734375,-0.16843996942043304,0.005193010903894901,0.047402869910001755
1732276349767775700,4.443775634765625,-0.172700896859169,0.011584409512579441,0.0047935484908521175
1732276349777817300,4.4538173828125,-0.15459194779396057,-0.011850717477500439,-0.053794268518686295
1732276349787858700,4.463858642578125,-0.11517832428216934,-0.015046416781842709,-0.11131685227155685
1732276349797900300,4.473900390625,-0.053394805639982224,0.001997311832383275,-0.1262301206588745
1732276349807942000,4.48394189453125,0.006258244160562754,-0.017176883295178413,-0.0846860259771347
1732276349817983500,4.4939833984375,0.020106272771954536,-0.07150376588106155,-0.01438064593821764
1732276349828025000,4.504025146484375,-0.005459319334477186,-0.10133028775453568,0.035685304552316666
1732276349838066700,4.514066650390625,-0.044872939586639404,-0.07363422960042953,0.038881003856658936
1732276349848108300,4.5241083984375,-0.08428656309843063,0.008388710208237171,-0.0026630824431777
1732276349858150000,4.53414990234375,-0.09493889659643173,0.08721595257520676,-0.07296846061944962
1732276349868191200,4.544191162109375,-0.09280842542648315,0.1031944528222084,-0.14753477275371552
1732276349878232300,4.554232421875,-0.07896039634943008,0.08721595257520676,-0.2114487588405609
1732276349888273700,4.564273681640625,-0.0555252730846405,0.07336792349815369,-0.25086238980293274
1732276349898314800,4.574314697265625,-0.040612008422613144,0.050998032093048096,-0.2796236574649811
1732276349908356000,4.584356201171875,-0.04274247586727142,0.040345702320337296,-0.29134124517440796
1732276349918397400,4.5943974609375,-0.051264338195323944,0.047802332788705826,-0.27323228120803833
1732276349928438500,4.6044384765625,-0.047003407031297684,0.059519894421100616,-0.21890538930892944
1732276349938479600,4.614479736328125,-0.022503048181533813,0.07017222791910172,-0.1486000120639801
1732276349948520700,4.624520751953125,0.030758604407310486,0.06804175674915314,-0.0750989317893982
1732276349958561800,4.634561767578125,0.09999874979257584,0.047802332788705826,-0.013315413147211075
1732276349968603000,4.644602783203125,0.1777607649564743,0.011584409512579441,0.039946239441633224
1732276349978643700,4.654643798828125,0.24913136661052704,-0.023568280041217804,0.09214265644550323
1732276349988684800,4.664684814453125,0.2736317217350006,-0.022503048181533813,0.12516488134860992
1732276349998726100,4.67472607421875,0.2416747361421585,0.010519175790250301,0.10918638855218887
1732276350008767200,4.684767333984375,0.16071702539920807,0.08082455396652222,0.052729032933712006
1732276350018808600,4.69480859375,0.05312849581241608,0.16391272842884064,-0.042076703161001205
1732276350028850000,4.704849853515625,-0.03848154470324516,0.29174068570137024,-0.15392617881298065
1732276350038809900,4.714809814453125,-0.08854749798774719,0.41743817925453186,-0.2529928386211395
1732276350048776400,4.7247763671875,-0.09706936031579971,0.4536561071872711,-0.30199354887008667
1732276350058752500,4.73475244140625,-0.08109086751937866,0.40678587555885315,-0.2753627300262451
1732276350068739800,4.74473974609375,-0.06298190355300903,0.2938711643218994,-0.19333979487419128
1732276350078740500,4.754740478515625,-0.05659050494432449,0.15112993121147156,-0.07296846061944962
1732276350088755200,4.764755126953125,-0.07150376588106155,0.043541401624679565,0.0740336924791336
1732276350098784800,4.77478466796875,-0.10665645450353622,0.025432437658309937,0.22636201977729797
1732276350108829200,4.7848291015625,-0.1300915777683258,0.061650361865758896,0.33501577377319336
1732276350118887400,4.794887451171875,-0.1290263533592224,0.1351514458656311,0.3392767310142517
1732276350128958200,4.804958251953125,-0.08428656309843063,0.22356578707695007,0.2231663167476654
1732276350139039500,4.81503955078125,0.008388710208237171,0.30984964966773987,0.015445878729224205
1732276350149129500,4.82512939453125,0.11597724258899689,0.35245898365974426,-0.2252967804670334
1732276350159226400,4.835226318359375,0.2011958807706833,0.335415244102478,-0.43088674545288086
1732276350169327400,4.845327392578125,0.251261830329895,0.251261830329895,-0.5512580871582031
1732276350179430100,4.85543017578125,0.24060951173305511,0.1575213372707367,-0.5896064639091492
1732276350189511400,4.865511474609375,0.11917294561862946,0.058454662561416626,-0.5193011164665222
1732276350199552800,4.875552734375,-0.019307348877191544,0.014780107885599136,-0.3712337017059326
1732276350209593900,4.88559375,-0.10559122264385223,0.0712374597787857,-0.2114487588405609
1732276350219635200,4.89563525390625,-0.12476541846990585,0.14793424308300018,-0.07616416364908218
1732276350229676500,4.905676513671875,-0.06830807030200958,0.1777607649564743,0.0026630824431777
1732276350239717600,4.915717529296875,0.05312849581241608,0.17243459820747375,0.028228675946593285
1732276350249759000,4.925759033203125,0.16497796773910522,0.1362166702747345,0.034620072692632675
1732276350259800300,4.93580029296875,0.22463101148605347,0.10212921351194382,0.045272402465343475
1732276350269841400,4.94584130859375,0.23421810567378998,0.06804175674915314,0.051663801074028015
1732276350279882800,4.9558828125,0.22250054776668549,0.011584409512579441,0.043141938745975494
1732276350289924000,4.965924072265625,0.20226112008094788,-0.04593817517161369,0.037815771996974945
1732276350299965200,4.975965087890625,0.1692388951778412,-0.10026505589485168,0.062316130846738815
1732276350310006500,4.986006591796875,0.12876003980636597,-0.1311568170785904,0.1166430190205574
1732276350320047600,4.996047607421875,0.09999874979257584,-0.1524614691734314,0.18481792509555817
1732276350330089000,5.0060888671875,0.09999874979257584,-0.15672241151332855,0.2444709837436676
1732276350340130300,5.01613037109375,0.12876003980636597,-0.15885287523269653,0.27216702699661255
1732276350350171400,5.02617138671875,0.16178226470947266,-0.16950520873069763,0.2636451721191406
1732276350360212700,5.036212646484375,0.18628261983394623,-0.18122276663780212,0.23168818652629852
1732276350370254000,5.046254150390625,0.18734785914421082,-0.17483137547969818,0.19333979487419128
1732276350380295200,5.056295166015625,0.17563030123710632,-0.17802706360816956,0.15286093950271606
1732276350390336500,5.06633642578125,0.17563030123710632,-0.17802706360816956,0.11557777971029282
1732276350400377600,5.076377685546875,0.1671084314584732,-0.15352670848369598,0.09427312016487122
1732276350410419000,5.0864189453125,0.10852061212062836,-0.14926578104496002,0.08894696086645126
1732276350420460300,5.096460205078125,0.057389430701732635,-0.1407439112663269,0.07829462736845016
1732276350430501400,5.10650146484375,0.031823836266994476,-0.09067796170711517,0.058055199682712555
1732276350440542700,5.116542724609375,0.017975807189941406,-0.04593817517161369,0.043141938745975494
1732276350450584000,5.126583984375,0.007323476951569319,-0.021437814459204674,0.017576344311237335
1732276350460625200,5.136625244140625,-0.00226362026296556,-0.018242115154862404,-0.025032976642251015
1732276350470666500,5.14666650390625,-0.0001331541279796511,-0.018242115154862404,-0.0740336924791336
1732276350480707800,5.156707763671875,0.015845341607928276,0.001997311832383275,-0.1070559173822403
1732276350490749000,5.1667490234375,0.031823836266994476,0.013714875094592571,-0.13049104809761047
1732276350500790300,5.176790283203125,0.03928046673536301,0.007323476951569319,-0.14646953344345093
1732276350510831400,5.186831298828125,0.038215234875679016,0.019041040912270546,-0.15499140322208405
1732276350520872700,5.196872802734375,0.03288906812667847,0.03288906812667847,-0.16564373672008514
1732276350530914000,5.2069140625,0.029693370684981346,0.035019535571336746,-0.1720351278781891
1732276350540955100,5.216955078125,0.029693370684981346,0.037150003015995026,-0.16564373672008514
1732276350550996500,5.22699658203125,0.033954303711652756,0.035019535571336746,-0.14327384531497955
1732276350561037800,5.237037841796875,0.041410934180021286,0.03288906812667847,-0.11238208413124084
1732276350571079000,5.247078857421875,0.043541401624679565,0.017975807189941406,-0.07190322875976562
1732276350581120300,5.257120361328125,0.040345702320337296,-0.0001331541279796511,-0.032489608973264694
1732276350591161300,5.267161376953125,0.03928046673536301,-0.013981183059513569,-0.0015978495357558131
1732276350601202700,5.27720263671875,0.040345702320337296,-0.022503048181533813,0.019706811755895615
1732276350611244000,5.287244140625,0.038215234875679016,-0.03528584539890289,0.033554840832948685
1732276350621285000,5.29728515625,0.03608476743102074,-0.05659050494432449,0.036750540137290955
1732276350631326500,5.307326416015625,0.030758604407310486,-0.07256899774074554,0.035685304552316666
1732276350641367800,5.317367919921875,0.015845341607928276,-0.06830807030200958,0.035685304552316666
1732276350651295000,5.327294921875,-0.00226362026296556,-0.05659050494432449,0.031424373388290405
1732276350661226500,5.3372265625,-0.013981183059513569,-0.05659050494432449,0.023967742919921875
1732276350671171000,5.347171142578125,-0.024633513763546944,-0.05978620424866676,0.00905448105186224
1732276350681128000,5.3571279296875,-0.03209014609456062,-0.04913387447595596,-0.016511112451553345
1732276350691104000,5.36710400390625,-0.03848154470324516,-0.048068638890981674,-0.045272402465343475
1732276350701097000,5.377096923828125,-0.041677240282297134,-0.05659050494432449,-0.0633813664317131
1732276350711112700,5.38711279296875,-0.040612008422613144,-0.058720968663692474,-0.053794268518686295
1732276350721151000,5.39715087890625,-0.03954677656292915,-0.06404713541269302,-0.034620072692632675
1732276350731211000,5.4072109375,-0.041677240282297134,-0.066177599132061,-0.018641578033566475
1732276350741291300,5.417291259765625,-0.036351077258586884,-0.06298190355300903,-0.0026630824431777
1732276350751389400,5.427389404296875,-0.026763979345560074,-0.05978620424866676,0.010119713842868805
1732276350761503000,5.4375029296875,-0.026763979345560074,-0.057655736804008484,0.0047935484908521175
1732276350771627800,5.447627685546875,-0.029959678649902344,-0.048068638890981674,-0.01438064593821764
1732276350781760300,5.45776025390625,-0.03209014609456062,-0.03209014609456062,-0.041011471301317215
1732276350791896600,5.467896484375,-0.03954677656292915,-0.022503048181533813,-0.0740336924791336
1732276350802031000,5.478031005859375,-0.057655736804008484,-0.017176883295178413,-0.09853405505418777
1732276350812070100,5.488070068359375,-0.0768299326300621,-0.0011983871227130294,-0.10279498994350433
1732276350822109200,5.498109130859375,-0.08535179495811462,0.007323476951569319,-0.0953383520245552
1732276350832148500,5.5081484375,-0.07576470077037811,-0.00226362026296556,-0.09214265644550323
1732276350842188000,5.51818798828125,-0.054460037499666214,-0.021437814459204674,-0.09214265644550323
1732276350852114700,5.52811474609375,-0.03528584539890289,-0.03209014609456062,-0.10066451877355576
1732276350862050800,5.53805078125,-0.022503048181533813,-0.025698747485876083,-0.1059906855225563
1732276350872000000,5.548,-0.018242115154862404,-0.008655018173158169,-0.09427312016487122
1732276350881965800,5.5579658203125,-0.016111649572849274,0.007323476951569319,-0.07722939550876617
1732276350891945200,5.5679453125,-0.024633513763546944,0.005193010903894901,-0.07083799690008163
1732276350901945300,5.5779453125,-0.047003407031297684,0.011584409512579441,-0.07296846061944962
1732276350911962000,5.587962158203125,-0.060851436108350754,0.031823836266994476,-0.08149032294750214
1732276350922000600,5.598000732421875,-0.057655736804008484,0.043541401624679565,-0.10172975063323975
1732276350932060200,5.60806005859375,-0.04913387447595596,0.028628136962652206,-0.13581721484661102
1732276350942139100,5.61813916015625,-0.051264338195323944,-0.0011983871227130294,-0.16670896112918854
1732276350952235300,5.6282353515625,-0.060851436108350754,-0.008655018173158169,-0.1805569976568222
1732276350962345700,5.638345703125,-0.06511236727237701,0.004127778112888336,-0.1709699034690857
1732276350972467000,5.648467041015625,-0.053394805639982224,0.0009320789249613881,-0.15712186694145203
1732276350982595600,5.658595703125,-0.04274247586727142,-0.025698747485876083,-0.14007814228534698
1732276350992727600,5.6687275390625,-0.041677240282297134,-0.040612008422613144,-0.10812114924192429
1732276351002853600,5.678853515625,-0.037416309118270874,-0.018242115154862404,-0.06657706201076508
1732276351012895000,5.68889501953125,-0.025698747485876083,-0.0011983871227130294,-0.042076703161001205
1732276351022936300,5.698936279296875,-0.009720250964164734,-0.018242115154862404,-0.023967742919921875
1732276351032977400,5.708977294921875,0.004127778112888336,-0.041677240282297134,-0.0037283156998455524
1732276351043018800,5.719018798828125,-0.005459319334477186,-0.03954677656292915,0.016511112451553345
1732276351053060000,5.72906005859375,-0.013981183059513569,-0.007589785382151604,0.043141938745975494
1732276351063101400,5.739101318359375,-0.005459319334477186,0.0009320789249613881,0.047402869910001755
1732276351073142500,5.749142578125,0.011584409512579441,-0.021437814459204674,0.020772043615579605
1732276351083129000,5.759129150390625,0.010519175790250301,-0.040612008422613144,-0.0026630824431777
1732276351093120000,5.7691201171875,-0.0033288532868027687,-0.029959678649902344,-0.017576344311237335
1732276351103112400,5.779112548828125,-0.016111649572849274,-0.004394086077809334,-0.027163442224264145
1732276351113112800,5.78911279296875,-0.017176883295178413,-0.00226362026296556,-0.028228675946593285
1732276351123117800,5.799117919921875,-0.018242115154862404,-0.016111649572849274,-0.019706811755895615
1732276351133133600,5.809133544921875,-0.028894444927573204,-0.015046416781842709,0.0026630824431777
1732276351143155700,5.81915576171875,-0.036351077258586884,0.004127778112888336,0.032489608973264694
1732276351153189600,5.829189697265625,-0.03528584539890289,0.017975807189941406,0.049533337354660034
1732276351163230200,5.839230224609375,-0.020372580736875534,0.011584409512579441,0.036750540137290955
1732276351173282300,5.8492822265625,-0.0011983871227130294,-0.008655018173158169,0.0005326165119186044
1732276351183340000,5.859340087890625,0.006258244160562754,-0.023568280041217804,-0.032489608973264694
1732276351193407200,5.8694072265625,0.006258244160562754,-0.019307348877191544,-0.049533337354660034
1732276351203477800,5.879477783203125,0.005193010903894901,-0.009720250964164734,-0.054859500378370285
1732276351213555200,5.88955517578125,0.005193010903894901,-0.005459319334477186,-0.051663801074028015
1732276351223637800,5.8996376953125,0.008388710208237171,0.009453942999243736,-0.035685304552316666
1732276351233723600,5.9097236328125,0.015845341607928276,0.011584409512579441,-0.016511112451553345
1732276351243810800,5.919810791015625,0.019041040912270546,-0.007589785382151604,-0.006924014538526535
1732276351253885400,5.929885498046875,0.009453942999243736,-0.021437814459204674,-0.0037283156998455524
1732276351263888100,5.93988818359375,-0.006524552125483751,-0.007589785382151604,0.0037283156998455524
1732276351273894100,5.94989404296875,-0.009720250964164734,0.005193010903894901,0.01118494663387537
1732276351283904300,5.959904296875,-0.0011983871227130294,-0.012915950268507004,0.0037283156998455524
1732276351293919700,5.969919677734375,-0.0001331541279796511,-0.040612008422613144,-0.016511112451553345
1732276351303941600,5.979941650390625,-0.020372580736875534,-0.04913387447595596,-0.031424373388290405
1732276351313970200,5.98997021484375,-0.03954677656292915,-0.025698747485876083,-0.033554840832948685
1732276351324006000,6.000005859375,-0.043807707726955414,-0.009720250964164734,-0.032489608973264694
1732276351334048300,6.01004833984375,-0.037416309118270874,-0.019307348877191544,-0.038881003856658936
1732276351344097500,6.02009765625,-0.027829213067889214,-0.023568280041217804,-0.047402869910001755
1732276351354152700,6.030152587890625,-0.024633513763546944,-0.0011983871227130294,-0.048468101769685745
1732276351364213000,6.040212890625,-0.022503048181533813,0.027562905102968216,-0.045272402465343475
1732276351374277600,6.050277587890625,-0.012915950268507004,0.028628136962652206,-0.051663801074028015
1732276351384345300,6.060345458984375,0.005193010903894901,0.011584409512579441,-0.07190322875976562
1732276351394415000,6.0704150390625,0.005193010903894901,-0.016111649572849274,-0.08788172155618668
1732276351404485600,6.080485595703125,-0.016111649572849274,-0.013981183059513569,-0.08362079411745071
1732276351414429200,6.09042919921875,-0.037416309118270874,0.0009320789249613881,-0.061250898987054825
1732276351424381200,6.100381103515625,-0.047003407031297684,-0.0033288532868027687,-0.038881003856658936
1732276351434345000,6.110344970703125,-0.04593817517161369,-0.028894444927573204,-0.025032976642251015
1732276351444323000,6.120322998046875,-0.04913387447595596,-0.054460037499666214,-0.010119713842868805
1732276351454317600,6.130317626953125,-0.053394805639982224,-0.048068638890981674,0.01438064593821764
1732276351464329700,6.140329833984375,-0.0555252730846405,-0.025698747485876083,0.029293907806277275
1732276351474359800,6.15035986328125,-0.040612008422613144,-0.017176883295178413,0.020772043615579605
1732276351484407600,6.160407470703125,-0.015046416781842709,-0.022503048181533813,-0.006924014538526535
1732276351494472400,6.170472412109375,-0.005459319334477186,-0.025698747485876083,-0.032489608973264694
1732276351504552200,6.18055224609375,-0.016111649572849274,-0.004394086077809334,-0.044207170605659485
1732276351514645200,6.190645263671875,-0.024633513763546944,0.017975807189941406,-0.047402869910001755
1732276351524748000,6.200748046875,-0.021437814459204674,0.025432437658309937,-0.048468101769685745
1732276351534856200,6.210856201171875,-0.008655018173158169,0.017975807189941406,-0.056989967823028564
1732276351544965000,6.220965087890625,-0.0001331541279796511,0.005193010903894901,-0.0633813664317131
1732276351555003400,6.23100341796875,-0.011850717477500439,0.001997311832383275,-0.060185667127370834
1732276351565041400,6.24104150390625,-0.029959678649902344,0.021171506494283676,-0.052729032933712006
1732276351575080000,6.251079833984375,-0.03209014609456062,0.040345702320337296,-0.047402869910001755
1732276351585118700,6.26111865234375,-0.013981183059513569,0.035019535571336746,-0.047402869910001755
1732276351595157800,6.27115771484375,-0.011850717477500439,0.0030625448562204838,-0.048468101769685745
1732276351605197600,6.281197509765625,-0.023568280041217804,0.004127778112888336,-0.054859500378370285
1732276351615241500,6.291241455078125,-0.03848154470324516,0.025432437658309937,-0.042076703161001205
1732276351625288400,6.301288330078125,-0.04593817517161369,0.029693370684981346,-0.020772043615579605
1732276351635335400,6.31133544921875,-0.037416309118270874,0.027562905102968216,-0.017576344311237335
1732276351645374200,6.321374267578125,-0.020372580736875534,0.011584409512579441,-0.027163442224264145
1732276351655413000,6.3314130859375,-0.006524552125483751,-0.010785484686493874,-0.030359141528606415
1732276351665452000,6.3414521484375,-0.00226362026296556,-0.008655018173158169,-0.034620072692632675
1732276351675491300,6.3514912109375,-0.008655018173158169,0.015845341607928276,-0.044207170605659485
1732276351685531000,6.36153076171875,-0.015046416781842709,0.043541401624679565,-0.055924732238054276
1732276351695574000,6.371573974609375,-0.011850717477500439,0.05312849581241608,-0.0846860259771347
1732276351705620500,6.381620361328125,-0.007589785382151604,0.044606633484363556,-0.12409964948892593
1732276351715663000,6.3916630859375,-0.009720250964164734,0.03288906812667847,-0.15286093950271606
1732276351725704200,6.4017041015625,-0.021437814459204674,0.021171506494283676,-0.1603175699710846
1732276351735750100,6.411750244140625,-0.03954677656292915,0.027562905102968216,-0.1496652364730835
1732276351745800400,6.421800537109375,-0.04274247586727142,0.059519894421100616,-0.13155627250671387
1732276351755854600,6.4318544921875,-0.037416309118270874,0.06271559745073318,-0.11131685227155685
1732276351765910800,6.441910888671875,-0.022503048181533813,0.058454662561416626,-0.10918638855218887
1732276351775911000,6.451910888671875,-0.008655018173158169,0.047802332788705826,-0.10918638855218887
1732276351785913000,6.4619130859375,-0.005459319334477186,0.03928046673536301,-0.11025162041187286
1732276351795918600,6.471918701171875,-0.00226362026296556,0.03288906812667847,-0.11344731599092484
1732276351805928400,6.481928466796875,-0.00226362026296556,0.024367205798625946,-0.11131685227155685
1732276351815944000,6.49194384765625,-0.006524552125483751,0.019041040912270546,-0.10172975063323975
1732276351825965300,6.50196533203125,-0.018242115154862404,0.016910573467612267,-0.07190322875976562
1732276351835993900,6.511993896484375,-0.027829213067889214,0.020106272771954536,-0.036750540137290955
1732276351846029300,6.522029296875,-0.031024912372231483,0.007323476951569319,-0.00905448105186224
1732276351856072000,6.532072021484375,-0.027829213067889214,-0.009720250964164734,0.00585878174751997
1732276351866125800,6.542125732421875,-0.023568280041217804,-0.016111649572849274,0.010119713842868805
1732276351876185600,6.552185546875,-0.020372580736875534,-0.010785484686493874,0.012250179424881935
1732276351886254800,6.5622548828125,-0.017176883295178413,-0.011850717477500439,0.0047935484908521175
1732276351896327400,6.572327392578125,-0.018242115154862404,-0.013981183059513569,-0.0015978495357558131
1732276351906406400,6.582406494140625,-0.022503048181533813,-0.006524552125483751,-0.0005326165119186044
1732276351916485600,6.592485595703125,-0.017176883295178413,-0.007589785382151604,0.00585878174751997
1732276351926568200,6.602568115234375,-0.006524552125483751,-0.008655018173158169,0.013315413147211075
1732276351936571000,6.61257080078125,-0.0033288532868027687,-0.008655018173158169,0.018641578033566475
1732276351946579700,6.622579833984375,-0.008655018173158169,-0.012915950268507004,0.020772043615579605
1732276351956591000,6.632591064453125,-0.013981183059513569,-0.008655018173158169,0.01438064593821764
1732276351966611000,6.64261083984375,-0.016111649572849274,-0.0001331541279796511,0.0015978495357558131
1732276351976635100,6.65263525390625,-0.016111649572849274,-0.0001331541279796511,-0.019706811755895615
1732276351986668500,6.66266845703125,-0.019307348877191544,-0.0033288532868027687,-0.035685304552316666
1732276351996706800,6.672706787109375,-0.027829213067889214,0.010519175790250301,-0.033554840832948685
1732276352006754300,6.68275439453125,-0.024633513763546944,0.025432437658309937,-0.022902509197592735
1732276352016810500,6.692810546875,-0.013981183059513569,0.019041040912270546,-0.019706811755895615
1732276352026874600,6.70287451171875,-0.0033288532868027687,-0.00226362026296556,-0.027163442224264145
1732276352036945200,6.712945068359375,-0.005459319334477186,-0.019307348877191544,-0.034620072692632675
1732276352047020800,6.723020751953125,-0.013981183059513569,-0.0033288532868027687,-0.030359141528606415
1732276352057100000,6.73310009765625,-0.017176883295178413,0.019041040912270546,-0.015445878729224205
1732276352067181300,6.743181396484375,-0.012915950268507004,0.020106272771954536,-0.00585878174751997
1732276352077262800,6.753262939453125,-0.0033288532868027687,0.011584409512579441,-0.0037283156998455524
1732276352087310000,6.76331005859375,0.008388710208237171,0.006258244160562754,-0.01118494663387537
1732276352097351400,6.773351318359375,0.011584409512579441,-0.004394086077809334,-0.020772043615579605
1732276352107392500,6.783392578125,0.0009320789249613881,-0.0011983871227130294,-0.012250179424881935
1732276352117433300,6.793433349609375,-0.008655018173158169,0.013714875094592571,0.010119713842868805
1732276352127474400,6.803474365234375,-0.009720250964164734,0.010519175790250301,0.027163442224264145
1732276352137515300,6.813515380859375,0.0009320789249613881,-0.004394086077809334,0.029293907806277275
1732276352147556400,6.823556396484375,0.012649642303586006,-0.015046416781842709,0.021837277337908745
1732276352157597400,6.833597412109375,0.015845341607928276,-0.027829213067889214,0.01118494663387537
1732276352167638800,6.843638671875,0.0009320789249613881,-0.029959678649902344,0.0037283156998455524
1732276352177680000,6.853679931640625,-0.020372580736875534,0.0009320789249613881,0.0047935484908521175
1732276352187721200,6.86372119140625,-0.025698747485876083,0.030758604407310486,0.01118494663387537
1732276352197762300,6.87376220703125,-0.017176883295178413,0.020106272771954536,0.013315413147211075
1732276352207803600,6.8838037109375,-0.007589785382151604,-0.004394086077809334,0.017576344311237335
1732276352217845200,6.89384521484375,-0.0001331541279796511,-0.006524552125483751,0.029293907806277275
1732276352227886600,6.903886474609375,0.007323476951569319,0.0009320789249613881,0.036750540137290955
1732276352237928000,6.913927978515625,0.012649642303586006,-0.0033288532868027687,0.031424373388290405
1732276352247969300,6.92396923828125,0.010519175790250301,-0.010785484686493874,0.020772043615579605
1732276352258011000,6.934010986328125,-0.004394086077809334,-0.00226362026296556,0.013315413147211075
1732276352268052200,6.94405224609375,-0.021437814459204674,0.021171506494283676,0.012250179424881935
1732276352278093600,6.954093505859375,-0.023568280041217804,0.035019535571336746,0.0079892473295331
1732276352288135000,6.964135009765625,-0.012915950268507004,0.020106272771954536,0.0015978495357558131
1732276352298176500,6.974176513671875,-0.00226362026296556,0.009453942999243736,-0.0026630824431777
1732276352308217900,6.9842177734375,0.001997311832383275,0.014780107885599136,-0.0047935484908521175
1732276352318259200,6.99425927734375,0.0030625448562204838,0.005193010903894901,-0.006924014538526535
1732276352328300500,7.004300537109375,0.007323476951569319,-0.00226362026296556,-0.0047935484908521175
1732276352338342000,7.014341796875,0.007323476951569319,-0.004394086077809334,0.006924014538526535
1732276352348383000,7.024383056640625,-0.00226362026296556,0.017975807189941406,0.035685304552316666
1732276352358424000,7.034424072265625,-0.008655018173158169,0.027562905102968216,0.054859500378370285
1732276352368465400,7.04446533203125,-0.0033288532868027687,0.023301972076296806,0.046337638050317764
1732276352378506500,7.054506591796875,0.0009320789249613881,0.015845341607928276,0.025032976642251015
1732276352388427500,7.064427490234375,0.010519175790250301,0.012649642303586006,-0.0026630824431777
1732276352398358300,7.074358154296875,0.020106272771954536,0.004127778112888336,-0.030359141528606415
1732276352408302600,7.084302490234375,0.013714875094592571,-0.0011983871227130294,-0.039946239441633224
1732276352418263800,7.094263916015625,-0.0001331541279796511,0.020106272771954536,-0.026098208501935005
1732276352428244500,7.104244384765625,-0.007589785382151604,0.042476166039705276,-0.0079892473295331
1732276352438246400,7.114246337890625,-0.004394086077809334,0.045671865344047546,0.00585878174751997
1732276352448270000,7.12427001953125,0.004127778112888336,0.03608476743102074,0.00905448105186224
1732276352458315500,7.1343154296875,0.004127778112888336,0.020106272771954536,0.010119713842868805
1732276352468381700,7.144381591796875,-0.012915950268507004,0.015845341607928276,0.012250179424881935
1732276352478466800,7.154466796875,-0.031024912372231483,0.025432437658309937,0.00905448105186224
1732276352488568000,7.164568115234375,-0.036351077258586884,0.03288906812667847,0.0005326165119186044
1732276352498682600,7.1746826171875,-0.027829213067889214,0.030758604407310486,-0.00585878174751997
1732276352508807200,7.18480712890625,-0.012915950268507004,0.028628136962652206,-0.0037283156998455524
1732276352518937600,7.1949375,0.001997311832383275,0.026497671380639076,0.0037283156998455524
1732276352529070600,7.205070556640625,0.014780107885599136,0.025432437658309937,0.013315413147211075
1732276352539167000,7.2151669921875,0.020106272771954536,0.021171506494283676,0.018641578033566475
1732276352549208300,7.225208251953125,0.021171506494283676,0.011584409512579441,0.020772043615579605
1732276352559249700,7.235249755859375,0.019041040912270546,0.016910573467612267,0.033554840832948685
1732276352569290800,7.245290771484375,0.015845341607928276,0.026497671380639076,0.051663801074028015
1732276352579332000,7.25533203125,0.011584409512579441,0.011584409512579441,0.0633813664317131
1732276352589373200,7.265373291015625,0.008388710208237171,0.001997311832383275,0.06657706201076508
1732276352599414500,7.27541455078125,-0.0001331541279796511,-0.0001331541279796511,0.061250898987054825
1732276352609455900,7.285455810546875,-0.017176883295178413,0.007323476951569319,0.046337638050317764
1732276352619497000,7.2954970703125,-0.033155377954244614,0.023301972076296806,0.026098208501935005
1732276352629538300,7.305538330078125,-0.034220609813928604,0.030758604407310486,-0.0047935484908521175
1732276352639579600,7.31557958984375,-0.028894444927573204,0.028628136962652206,-0.043141938745975494
1732276352649620700,7.325620849609375,-0.017176883295178413,0.021171506494283676,-0.07083799690008163
1732276352659662000,7.335662109375,-0.009720250964164734,0.022236740216612816,-0.07829462736845016
1732276352669703200,7.345703125,-0.010785484686493874,0.027562905102968216,-0.06551183015108109
1732276352679744500,7.35574462890625,-0.010785484686493874,0.029693370684981346,-0.045272402465343475
1732276352689785900,7.365785888671875,-0.006524552125483751,0.031823836266994476,-0.028228675946593285
1732276352699827000,7.375826904296875,-0.0001331541279796511,0.026497671380639076,-0.026098208501935005
1732276352709868300,7.385868408203125,0.001997311832383275,0.013714875094592571,-0.036750540137290955
1732276352719909600,7.39590966796875,-0.012915950268507004,0.0030625448562204838,-0.047402869910001755
1732276352729950700,7.40595068359375,-0.036351077258586884,0.014780107885599136,-0.035685304552316666
1732276352739992000,7.415991943359375,-0.044872939586639404,0.033954303711652756,-0.01438064593821764
1732276352750033400,7.426033447265625,-0.03848154470324516,0.031823836266994476,-0.00585878174751997
1732276352760074500,7.436074462890625,-0.028894444927573204,0.014780107885599136,-0.006924014538526535
1732276352770115800,7.44611572265625,-0.015046416781842709,0.006258244160562754,-0.01118494663387537
1732276352780157000,7.456156982421875,-0.005459319334477186,0.001997311832383275,-0.01118494663387537
1732276352790198300,7.4661982421875,-0.004394086077809334,-0.0011983871227130294,-0.013315413147211075
1732276352800239600,7.476239501953125,-0.009720250964164734,0.007323476951569319,-0.0079892473295331
1732276352810280700,7.48628076171875,-0.010785484686493874,0.013714875094592571,-0.0047935484908521175
1732276352820322000,7.496322021484375,-0.008655018173158169,-0.0011983871227130294,-0.006924014538526535
1732276352830363400,7.50636328125,-0.009720250964164734,-0.006524552125483751,-0.00905448105186224
1732276352840404500,7.516404541015625,-0.010785484686493874,0.005193010903894901,-0.010119713842868805
1732276352850445800,7.52644580078125,-0.010785484686493874,0.015845341607928276,-0.020772043615579605
1732276352860487200,7.536487060546875,-0.007589785382151604,0.015845341607928276,-0.036750540137290955
1732276352870528300,7.5465283203125,-0.004394086077809334,0.019041040912270546,-0.048468101769685745
1732276352880569600,7.556569580078125,-0.009720250964164734,0.006258244160562754,-0.047402869910001755
1732276352890610700,7.566610595703125,-0.009720250964164734,0.012649642303586006,-0.038881003856658936
1732276352900532500,7.576532470703125,-0.005459319334477186,0.019041040912270546,-0.025032976642251015
1732276352910463700,7.586463623046875,-0.0011983871227130294,0.0030625448562204838,-0.022902509197592735
1732276352920408600,7.59640869140625,-0.009720250964164734,-0.018242115154862404,-0.020772043615579605
1732276352930370300,7.606370361328125,-0.026763979345560074,-0.006524552125483751,-0.006924014538526535
1732276352940351500,7.6163515625,-0.03209014609456062,0.014780107885599136,0.0026630824431777
1732276352950353400,7.626353515625,-0.024633513763546944,0.014780107885599136,0.0037283156998455524
1732276352960377300,7.63637744140625,-0.010785484686493874,0.007323476951569319,-0.00585878174751997
1732276352970422800,7.6464228515625,0.0030625448562204838,-0.0011983871227130294,-0.019706811755895615
1732276352980489000,7.656489013671875,0.009453942999243736,-0.008655018173158169,-0.032489608973264694
1732276352990573600,7.666573486328125,0.007323476951569319,0.007323476951569319,-0.034620072692632675
1732276353000669700,7.676669677734375,-0.0033288532868027687,0.026497671380639076,-0.027163442224264145
1732276353010779600,7.686779541015625,-0.0011983871227130294,0.028628136962652206,-0.030359141528606415
1732276353020899600,7.696899658203125,0.006258244160562754,0.012649642303586006,-0.044207170605659485
1732276353031026400,7.7070263671875,0.004127778112888336,-0.017176883295178413,-0.042076703161001205
1732276353041156400,7.71715625,-0.005459319334477186,-0.009720250964164734,-0.027163442224264145
1732276353051271400,7.727271484375,-0.011850717477500439,0.016910573467612267,-0.012250179424881935
1732276353061312800,7.737312744140625,-0.012915950268507004,0.031823836266994476,-0.0015978495357558131
1732276353071353900,7.747353759765625,-0.004394086077809334,0.022236740216612816,-0.013315413147211075
1732276353081395200,7.757395263671875,-0.0001331541279796511,0.012649642303586006,-0.029293907806277275
1732276353091436500,7.7674365234375,-0.005459319334477186,0.022236740216612816,-0.037815771996974945
1732276353101477600,7.7774775390625,-0.009720250964164734,0.029693370684981346,-0.039946239441633224
1732276353111519000,7.78751904296875,-0.009720250964164734,0.017975807189941406,-0.036750540137290955
1732276353121560300,7.797560302734375,-0.010785484686493874,0.004127778112888336,-0.028228675946593285
1732276353131601400,7.807601318359375,-0.015046416781842709,0.0030625448562204838,-0.015445878729224205
1732276353141642800,7.817642822265625,-0.022503048181533813,0.013714875094592571,-0.0037283156998455524
1732276353151684000,7.82768408203125,-0.025698747485876083,0.016910573467612267,0.0015978495357558131
1732276353161663000,7.8376630859375,-0.021437814459204674,0.006258244160562754,-0.0026630824431777
1732276353171647000,7.84764697265625,-0.015046416781842709,-0.0033288532868027687,-0.0047935484908521175
1732276353181638000,7.857637939453125,-0.012915950268507004,-0.0011983871227130294,-0.00585878174751997
1732276353191637800,7.8676376953125,-0.012915950268507004,0.013714875094592571,-0.012250179424881935
1732276353201647600,7.877647705078125,-0.009720250964164734,0.023301972076296806,-0.023967742919921875
1732276353211668500,7.88766845703125,-0.004394086077809334,0.021171506494283676,-0.027163442224264145
1732276353221700600,7.89770068359375,-0.00226362026296556,0.021171506494283676,-0.015445878729224205
1732276353231744000,7.907743896484375,-0.00226362026296556,0.026497671380639076,-0.0037283156998455524
1732276353241798100,7.917798095703125,-0.006524552125483751,0.027562905102968216,0.0015978495357558131
1732276353251861800,7.92786181640625,-0.009720250964164734,0.023301972076296806,0.0015978495357558131
1732276353261934000,7.93793408203125,-0.008655018173158169,0.016910573467612267,-0.0026630824431777
1732276353272013300,7.948013427734375,-0.006524552125483751,0.014780107885599136,-0.013315413147211075
1732276353282097700,7.95809765625,-0.006524552125483751,0.015845341607928276,-0.026098208501935005
1732276353292185000,7.96818505859375,-0.009720250964164734,0.016910573467612267,-0.036750540137290955
1732276353302273500,7.9782734375,-0.009720250964164734,0.020106272771954536,-0.044207170605659485
1732276353312344300,7.98834423828125,-0.009720250964164734,0.028628136962652206,-0.037815771996974945
1732276353322385700,7.9983857421875,-0.013981183059513569,0.027562905102968216,-0.020772043615579605
1732276353332426800,8.0084267578125,-0.018242115154862404,0.025432437658309937,-0.0005326165119186044
1732276353342468000,8.018468017578124,-0.018242115154862404,0.019041040912270546,0.01438064593821764
1732276353352509200,8.02850927734375,-0.015046416781842709,0.011584409512579441,0.021837277337908745
1732276353362550300,8.03855029296875,-0.011850717477500439,0.004127778112888336,0.026098208501935005
1732276353372591000,8.048591064453126,-0.006524552125483751,0.010519175790250301,0.032489608973264694
1732276353382632200,8.058632080078125,0.0009320789249613881,0.021171506494283676,0.035685304552316666
1732276353392673300,8.06867333984375,0.007323476951569319,0.022236740216612816,0.034620072692632675
1732276353402714400,8.07871435546875,0.005193010903894901,0.017975807189941406,0.029293907806277275
1732276353412636200,8.08863623046875,-0.0001331541279796511,0.015845341607928276,0.018641578033566475
1732276353422567700,8.098567626953125,-0.005459319334477186,0.010519175790250301,0.0037283156998455524
1732276353432512500,8.108512451171874,-0.011850717477500439,0.005193010903894901,-0.01438064593821764
1732276353442474500,8.118474609375,-0.020372580736875534,0.006258244160562754,-0.031424373388290405
1732276353452455700,8.12845556640625,-0.027829213067889214,0.007323476951569319,-0.049533337354660034
1732276353462458000,8.1384580078125,-0.034220609813928604,0.006258244160562754,-0.062316130846738815
1732276353472482000,8.14848193359375,-0.037416309118270874,0.004127778112888336,-0.06870753318071365
1732276353482527700,8.15852783203125,-0.03848154470324516,-0.0011983871227130294,-0.0633813664317131
1732276353492594000,8.168593994140625,-0.037416309118270874,-0.0033288532868027687,-0.053794268518686295
1732276353502678800,8.1786787109375,-0.031024912372231483,-0.010785484686493874,-0.043141938745975494
1732276353512778200,8.1887783203125,-0.019307348877191544,-0.022503048181533813,-0.031424373388290405
1732276353522887700,8.1988876953125,-0.006524552125483751,-0.036351077258586884,-0.018641578033566475
1732276353533007400,8.20900732421875,0.007323476951569319,-0.040612008422613144,-0.00905448105186224
1732276353543128800,8.21912890625,0.015845341607928276,-0.04274247586727142,-0.0079892473295331
1732276353553253400,8.22925341796875,0.020106272771954536,-0.04913387447595596,-0.012250179424881935
1732276353563255600,8.239255615234375,0.021171506494283676,-0.053394805639982224,-0.015445878729224205
1732276353573263600,8.249263671875,0.024367205798625946,-0.060851436108350754,-0.01438064593821764
1732276353583274500,8.2592744140625,0.021171506494283676,-0.07363422960042953,-0.00585878174751997
1732276353593294000,8.269294189453126,0.016910573467612267,-0.07576470077037811,0.0079892473295331
1732276353603317800,8.27931787109375,0.022236740216612816,-0.08109086751937866,0.027163442224264145
1732276353613350400,8.289350341796874,0.03288906812667847,-0.09493889659643173,0.041011471301317215
1732276353623387600,8.2993876953125,0.041410934180021286,-0.10133028775453568,0.052729032933712006
1732276353633434600,8.3094345703125,0.047802332788705826,-0.0981345921754837,0.052729032933712006
1732276353643485700,8.319485595703124,0.047802332788705826,-0.08322133123874664,0.036750540137290955
1732276353653545200,8.329545166015626,0.052063263952732086,-0.06511236727237701,0.010119713842868805
1732276353663612000,8.33961181640625,0.058454662561416626,-0.060851436108350754,-0.026098208501935005
1732276353673684700,8.349684814453125,0.059519894421100616,-0.06937330216169357,-0.058055199682712555
1732276353683762200,8.35976220703125,0.05312849581241608,-0.07256899774074554,-0.07722939550876617
1732276353693842400,8.369842529296875,0.042476166039705276,-0.07469946891069412,-0.08362079411745071
1732276353703923700,8.379923828125,0.027562905102968216,-0.08322133123874664,-0.08149032294750214
1732276353713994800,8.389994873046875,0.017975807189941406,-0.09493889659643173,-0.062316130846738815
1732276353724035300,8.400035400390625,0.012649642303586006,-0.10346075892448425,-0.032489608973264694
1732276353734076000,8.410075927734376,0.011584409512579441,-0.11091738939285278,-0.0015978495357558131
1732276353744116500,8.420116455078125,0.016910573467612267,-0.10559122264385223,0.026098208501935005
1732276353754157300,8.4301572265625,0.03288906812667847,-0.0991998240351677,0.039946239441633224
1732276353764198100,8.4401982421875,0.047802332788705826,-0.09067796170711517,0.045272402465343475
1732276353774239000,8.450239013671874,0.05632419511675835,-0.0778951644897461,0.039946239441633224
1732276353784280000,8.460280029296875,0.055258963257074356,-0.058720968663692474,0.023967742919921875
1732276353794321200,8.470321044921874,0.045671865344047546,-0.041677240282297134,-0.00585878174751997
1732276353804362500,8.480362548828126,0.033954303711652756,-0.04593817517161369,-0.028228675946593285
1732276353814404000,8.490404052734375,0.022236740216612816,-0.03848154470324516,-0.025032976642251015
1732276353824445400,8.500445556640624,0.013714875094592571,-0.026763979345560074,-0.012250179424881935
1732276353834487300,8.5104873046875,-0.0001331541279796511,-0.015046416781842709,0.017576344311237335
1732276353844529000,8.52052880859375,-0.007589785382151604,-0.012915950268507004,0.033554840832948685
1732276353854570800,8.53057080078125,-0.008655018173158169,-0.0033288532868027687,0.037815771996974945
1732276353864612600,8.540612548828125,-0.008655018173158169,0.0009320789249613881,0.033554840832948685
1732276353874654500,8.550654541015625,-0.008655018173158169,0.006258244160562754,0.025032976642251015
1732276353884696000,8.560696044921874,-0.017176883295178413,0.016910573467612267,0.017576344311237335
1732276353894737400,8.5707373046875,-0.029959678649902344,0.03288906812667847,0.012250179424881935
1732276353904778500,8.580778564453125,-0.033155377954244614,0.052063263952732086,0.006924014538526535
1732276353914819800,8.59081982421875,-0.029959678649902344,0.058454662561416626,0.00585878174751997
1732276353924861000,8.60086083984375,-0.029959678649902344,0.054193731397390366,0.0079892473295331
1732276353934902300,8.61090234375,-0.028894444927573204,0.040345702320337296,0.00905448105186224
1732276353944943400,8.620943359375,-0.031024912372231483,0.024367205798625946,0.006924014538526535
1732276353954984700,8.630984619140625,-0.036351077258586884,0.017975807189941406,-0.0005326165119186044
1732276353964985900,8.64098583984375,-0.047003407031297684,0.020106272771954536,-0.015445878729224205
1732276353974985200,8.650985107421874,-0.057655736804008484,0.030758604407310486,-0.027163442224264145
1732276353984985000,8.660985107421874,-0.06298190355300903,0.042476166039705276,-0.037815771996974945
1732276353994986500,8.670986572265624,-0.05978620424866676,0.045671865344047546,-0.046337638050317764
1732276354004991200,8.6809912109375,-0.04913387447595596,0.045671865344047546,-0.049533337354660034
1732276354015000800,8.691000732421875,-0.036351077258586884,0.03928046673536301,-0.051663801074028015
1732276354025016000,8.70101611328125,-0.028894444927573204,0.031823836266994476,-0.046337638050317764
1732276354035038000,8.711037841796875,-0.025698747485876083,0.033954303711652756,-0.036750540137290955
1732276354045071400,8.7210712890625,-0.024633513763546944,0.038215234875679016,-0.023967742919921875
1732276354055114200,8.7311142578125,-0.023568280041217804,0.033954303711652756,-0.006924014538526535
1732276354065164500,8.74116455078125,-0.025698747485876083,0.024367205798625946,0.010119713842868805
1732276354075220700,8.751220703125,-0.028894444927573204,0.022236740216612816,0.031424373388290405
1732276354085281800,8.76128173828125,-0.024633513763546944,0.030758604407310486,0.042076703161001205
1732276354095346700,8.7713466796875,-0.017176883295178413,0.023301972076296806,0.042076703161001205
1732276354105414700,8.78141455078125,-0.010785484686493874,0.001997311832383275,0.034620072692632675
1732276354115484200,8.791484130859375,-0.015046416781842709,-0.006524552125483751,0.029293907806277275
1732276354125554200,8.80155419921875,-0.019307348877191544,0.006258244160562754,0.023967742919921875
1732276354135625500,8.81162548828125,-0.017176883295178413,0.016910573467612267,0.00905448105186224
1732276354145652000,8.82165185546875,-0.006524552125483751,0.024367205798625946,-0.010119713842868805
1732276354155678700,8.8316787109375,0.008388710208237171,0.019041040912270546,-0.029293907806277275
1732276354165706500,8.84170654296875,0.011584409512579441,0.015845341607928276,-0.038881003856658936
1732276354175740700,8.85174072265625,0.001997311832383275,0.028628136962652206,-0.034620072692632675
1732276354185781000,8.861781005859376,-0.006524552125483751,0.041410934180021286,-0.020772043615579605
1732276354195827200,8.8718271484375,-0.004394086077809334,0.044606633484363556,-0.01118494663387537
1732276354205877200,8.881877197265625,0.005193010903894901,0.030758604407310486,-0.013315413147211075
1732276354215929000,8.89192919921875,0.0030625448562204838,0.011584409512579441,-0.019706811755895615
1732276354225979000,8.901978759765624,-0.009720250964164734,0.015845341607928276,-0.017576344311237335
1732276354236020500,8.9120205078125,-0.019307348877191544,0.03608476743102074,-0.00905448105186224
1732276354246061600,8.9220615234375,-0.010785484686493874,0.038215234875679016,-0.00585878174751997
1732276354256102700,8.9321025390625,0.005193010903894901,0.025432437658309937,-0.0079892473295331
1732276354266143700,8.942143798828125,0.012649642303586006,0.013714875094592571,-0.012250179424881935
1732276354276184800,8.952184814453124,0.009453942999243736,0.016910573467612267,-0.017576344311237335
1732276354286226000,8.962225830078125,0.005193010903894901,0.023301972076296806,-0.022902509197592735
1732276354296267000,8.97226708984375,0.005193010903894901,0.024367205798625946,-0.029293907806277275
1732276354306312700,8.982312744140625,0.006258244160562754,0.022236740216612816,-0.032489608973264694
1732276354316350500,8.9923505859375,0.006258244160562754,0.017975807189941406,-0.028228675946593285
1732276354326392800,9.002392822265625,0.006258244160562754,0.017975807189941406,-0.017576344311237335
1732276354336433000,9.012432861328126,0.007323476951569319,0.017975807189941406,-0.00585878174751997
1732276354346477800,9.022477783203126,0.005193010903894901,0.012649642303586006,0.0037283156998455524
1732276354356515600,9.032515625,0.007323476951569319,0.008388710208237171,0.013315413147211075
1732276354366558200,9.04255810546875,0.012649642303586006,0.005193010903894901,0.018641578033566475
1732276354376598000,9.052597900390625,0.013714875094592571,-0.0033288532868027687,0.01438064593821764
1732276354386642700,9.062642578125,0.011584409512579441,-0.009720250964164734,0.010119713842868805
1732276354396680400,9.072680419921875,0.009453942999243736,-0.006524552125483751,0.00585878174751997
1732276354406723000,9.08272314453125,0.008388710208237171,-0.006524552125483751,0.0005326165119186044
1732276354416765400,9.092765380859374,0.006258244160562754,-0.005459319334477186,-0.0037283156998455524
1732276354426812200,9.102812255859375,0.0030625448562204838,-0.0033288532868027687,-0.00585878174751997
1732276354436863200,9.11286328125,0.001997311832383275,0.0009320789249613881,-0.0005326165119186044
1732276354446918000,9.12291796875,0.0009320789249613881,-0.00226362026296556,0.00585878174751997
1732276354456975600,9.1329755859375,0.0030625448562204838,-0.006524552125483751,0.010119713842868805
1732276354467035400,9.143035400390625,0.004127778112888336,-0.005459319334477186,0.010119713842868805
1732276354477096700,9.1530966796875,0.004127778112888336,-0.0033288532868027687,0.00905448105186224
1732276354487158500,9.163158447265625,0.0030625448562204838,0.004127778112888336,0.0079892473295331
1732276354497213400,9.17321337890625,0.005193010903894901,0.011584409512579441,0.0079892473295331
1732276354507254500,9.183254638671874,0.005193010903894901,0.012649642303586006,0.0047935484908521175
1732276354517295400,9.19329541015625,0.0030625448562204838,0.014780107885599136,-0.0026630824431777
1732276354527336400,9.20333642578125,-0.004394086077809334,0.001997311832383275,-0.0047935484908521175
1732276354537377500,9.21337744140625,-0.011850717477500439,-0.0001331541279796511,0.0026630824431777
1732276354547418600,9.223418701171875,-0.013981183059513569,0.010519175790250301,0.0079892473295331
1732276354557459700,9.233459716796874,-0.018242115154862404,0.017975807189941406,0.01118494663387537
1732276354567500800,9.243500732421875,-0.019307348877191544,0.021171506494283676,0.00585878174751997
1732276354577542000,9.2535419921875,-0.016111649572849274,0.027562905102968216,-0.012250179424881935
1732276354587583200,9.263583251953126,-0.016111649572849274,0.026497671380639076,-0.025032976642251015
1732276354597624600,9.27362451171875,-0.019307348877191544,0.017975807189941406,-0.030359141528606415
1732276354607666000,9.283666015625,-0.023568280041217804,0.010519175790250301,-0.022902509197592735
1732276354617707300,9.293707275390625,-0.029959678649902344,0.008388710208237171,-0.00585878174751997
1732276354627748600,9.30374853515625,-0.029959678649902344,0.011584409512579441,0.01118494663387537
1732276354637790000,9.3137900390625,-0.027829213067889214,0.012649642303586006,0.023967742919921875
1732276354647831600,9.32383154296875,-0.027829213067889214,0.014780107885599136,0.032489608973264694
1732276354657873000,9.333872802734374,-0.029959678649902344,0.011584409512579441,0.032489608973264694
1732276354667914200,9.343914306640626,-0.03209014609456062,0.005193010903894901,0.027163442224264145
1732276354677955600,9.35395556640625,-0.03954677656292915,-0.006524552125483751,0.018641578033566475
1732276354687997200,9.3639970703125,-0.043807707726955414,-0.004394086077809334,0.006924014538526535
1732276354698038500,9.37403857421875,-0.043807707726955414,0.004127778112888336,0.0005326165119186044
1732276354708079900,9.384079833984375,-0.04274247586727142,0.012649642303586006,-0.0037283156998455524
1732276354718121200,9.394121337890626,-0.03848154470324516,0.016910573467612267,-0.0079892473295331
1732276354728162300,9.404162353515625,-0.022503048181533813,0.008388710208237171,-0.012250179424881935
1732276354738083000,9.4140830078125,-0.007589785382151604,-0.004394086077809334,-0.00905448105186224
1732276354748013600,9.424013671875,-0.006524552125483751,-0.008655018173158169,-0.00585878174751997
1732276354757957600,9.43395751953125,-0.010785484686493874,-0.004394086077809334,0.0015978495357558131
1732276354767918800,9.4439189453125,-0.015046416781842709,-0.0001331541279796511,0.0026630824431777
1732276354777899500,9.4538994140625,-0.022503048181533813,-0.00226362026296556,0.0015978495357558131
1732276354787901400,9.4639013671875,-0.031024912372231483,-0.004394086077809334,-0.0005326165119186044
1732276354797925000,9.473925048828125,-0.036351077258586884,-0.012915950268507004,-0.0026630824431777
1732276354807970600,9.483970458984375,-0.037416309118270874,-0.011850717477500439,-0.00585878174751997
1732276354818036700,9.49403662109375,-0.027829213067889214,0.0030625448562204838,-0.01118494663387537
1732276354828121900,9.504121826171875,-0.021437814459204674,-0.0033288532868027687,-0.025032976642251015
1732276354838223400,9.514223388671875,-0.021437814459204674,-0.012915950268507004,-0.037815771996974945
1732276354848338000,9.524337890625,-0.026763979345560074,-0.006524552125483751,-0.039946239441633224
1732276354858462500,9.53446240234375,-0.03209014609456062,-0.0001331541279796511,-0.038881003856658936
1732276354868593200,9.54459326171875,-0.037416309118270874,0.007323476951569319,-0.031424373388290405
1732276354878726100,9.55472607421875,-0.03848154470324516,0.011584409512579441,-0.019706811755895615
1732276354888822800,9.56482275390625,-0.036351077258586884,0.009453942999243736,-0.0047935484908521175
1732276354898864000,9.574864013671874,-0.031024912372231483,0.004127778112888336,0.00905448105186224
1732276354908905200,9.5849052734375,-0.027829213067889214,-0.0001331541279796511,0.016511112451553345
1732276354918946600,9.594946533203125,-0.024633513763546944,0.001997311832383275,0.01438064593821764
1732276354928988000,9.60498779296875,-0.023568280041217804,0.005193010903894901,0.0047935484908521175
1732276354939029000,9.615029052734375,-0.025698747485876083,0.006258244160562754,-0.00585878174751997
1732276354949070000,9.625070068359374,-0.027829213067889214,0.013714875094592571,-0.01118494663387537
1732276354959111200,9.635111083984375,-0.03528584539890289,0.017975807189941406,-0.00905448105186224
1732276354969152300,9.64515234375,-0.04274247586727142,0.013714875094592571,-0.0015978495357558131
1732276354979193300,9.655193359375,-0.044872939586639404,0.007323476951569319,0.006924014538526535
1732276354989234200,9.665234130859375,-0.044872939586639404,0.006258244160562754,0.016511112451553345
1732276354999275300,9.675275146484376,-0.03954677656292915,0.007323476951569319,0.017576344311237335
1732276355009316400,9.68531640625,-0.027829213067889214,0.008388710208237171,0.01438064593821764
1732276355019357700,9.695357666015624,-0.020372580736875534,0.009453942999243736,0.01438064593821764
1732276355029398800,9.705398681640625,-0.011850717477500439,0.015845341607928276,0.013315413147211075
1732276355039440100,9.715440185546875,-0.007589785382151604,0.015845341607928276,0.0079892473295331
1732276355049481500,9.7254814453125,-0.007589785382151604,0.022236740216612816,0.0047935484908521175
1732276355059522800,9.735522705078125,-0.015046416781842709,0.031823836266994476,0.0026630824431777
1732276355069564200,9.745564208984375,-0.020372580736875534,0.041410934180021286,0.0005326165119186044
1732276355079605500,9.75560546875,-0.019307348877191544,0.044606633484363556,-0.00585878174751997
1732276355089646800,9.765646728515625,-0.013981183059513569,0.048867564648389816,-0.0047935484908521175
1732276355099688400,9.7756884765625,-0.007589785382151604,0.04993279650807381,0.0005326165119186044
1732276355109729800,9.785729736328125,-0.005459319334477186,0.048867564648389816,0.00585878174751997
1732276355119771100,9.795771240234375,-0.006524552125483751,0.04993279650807381,0.006924014538526535
1732276355129812500,9.8058125,-0.008655018173158169,0.052063263952732086,0.006924014538526535
1732276355139854000,9.81585400390625,-0.010785484686493874,0.05312849581241608,0.00585878174751997
1732276355149895400,9.8258955078125,-0.013981183059513569,0.048867564648389816,0.00905448105186224
1732276355159936800,9.835936767578126,-0.017176883295178413,0.050998032093048096,0.015445878729224205
1732276355169978000,9.84597802734375,-0.017176883295178413,0.058454662561416626,0.015445878729224205
1732276355180019500,9.85601953125,-0.007589785382151604,0.058454662561416626,0.0079892473295331
1732276355190060800,9.866060791015625,-0.0001331541279796511,0.050998032093048096,-0.0037283156998455524
1732276355200102000,9.876101806640625,-0.004394086077809334,0.054193731397390366,-0.00905448105186224
1732276355210143200,9.886143310546874,-0.008655018173158169,0.060585130006074905,-0.010119713842868805
1732276355220184300,9.896184326171875,-0.005459319334477186,0.044606633484363556,-0.0015978495357558131
1732276355230225700,9.9062255859375,0.005193010903894901,0.038215234875679016,0.00905448105186224
1732276355240267000,9.91626708984375,0.016910573467612267,0.041410934180021286,0.012250179424881935
1732276355250187800,9.926187744140625,0.017975807189941406,0.031823836266994476,0.018641578033566475
1732276355260118300,9.9361181640625,0.0030625448562204838,0.030758604407310486,0.023967742919921875
1732276355270062300,9.946062255859376,-0.011850717477500439,0.059519894421100616,0.025032976642251015
1732276355280023600,9.9560234375,-0.012915950268507004,0.06271559745073318,0.022902509197592735
1732276355290004000,9.96600390625,-0.0033288532868027687,0.040345702320337296,0.0079892473295331
1732276355300006000,9.976005859375,0.0009320789249613881,0.021171506494283676,0.0015978495357558131
1732276355310029600,9.986029541015625,-0.00226362026296556,0.020106272771954536,0.0026630824431777
1732276355320075000,9.996074951171876,-0.004394086077809334,0.026497671380639076,-0.0015978495357558131
1732276355330141200,10.00614111328125,-0.00226362026296556,0.03288906812667847,-0.0079892473295331
1732276355340226000,10.01622607421875,0.005193010903894901,0.035019535571336746,-0.01438064593821764
1732276355350326000,10.026325927734375,0.012649642303586006,0.026497671380639076,-0.017576344311237335
1732276355360439300,10.036439208984374,0.013714875094592571,0.010519175790250301,-0.021837277337908745
1732276355370562600,10.0465625,0.007323476951569319,-0.0033288532868027687,-0.026098208501935005
1732276355380692200,10.056692138671876,-0.0011983871227130294,-0.004394086077809334,-0.028228675946593285
1732276355390824400,10.066824462890626,-0.009720250964164734,0.0009320789249613881,-0.026098208501935005
1732276355400927200,10.07692724609375,-0.008655018173158169,0.004127778112888336,-0.026098208501935005
1732276355410915000,10.0869150390625,-0.004394086077809334,-0.0011983871227130294,-0.029293907806277275
1732276355420907300,10.0969072265625,-0.0001331541279796511,-0.0033288532868027687,-0.031424373388290405
1732276355430905300,10.1069052734375,0.001997311832383275,-0.0001331541279796511,-0.027163442224264145
1732276355440910800,10.116910888671875,0.006258244160562754,-0.004394086077809334,-0.026098208501935005
1732276355450925300,10.12692529296875,0.007323476951569319,-0.010785484686493874,-0.021837277337908745
1732276355460949000,10.136948974609375,0.008388710208237171,-0.009720250964164734,-0.013315413147211075
1732276355470982400,10.146982421875,0.010519175790250301,-0.007589785382151604,-0.00585878174751997
1732276355481025500,10.157025634765626,0.011584409512579441,-0.016111649572849274,0.0026630824431777
1732276355491078000,10.167077880859376,0.011584409512579441,-0.022503048181533813,0.016511112451553345
1732276355501138400,10.177138427734375,0.012649642303586006,-0.016111649572849274,0.027163442224264145
1732276355511206100,10.1872060546875,0.013714875094592571,-0.016111649572849274,0.026098208501935005
1732276355521280000,10.197280029296875,0.015845341607928276,-0.029959678649902344,0.01118494663387537
1732276355531358200,10.207358154296875,0.008388710208237171,-0.036351077258586884,-0.0037283156998455524
1732276355541439000,10.21743896484375,-0.006524552125483751,-0.020372580736875534,-0.00585878174751997
1732276355551520800,10.227520751953126,-0.016111649572849274,-0.00226362026296556,-0.0005326165119186044
1732276355561587200,10.237587158203125,-0.015046416781842709,-0.0001331541279796511,0.0015978495357558131
1732276355571628500,10.247628662109374,-0.007589785382151604,-0.007589785382151604,0.0015978495357558131
1732276355581670000,10.257669921875,-0.0001331541279796511,-0.016111649572849274,0.0026630824431777
1732276355591711200,10.267711181640625,-0.00226362026296556,-0.016111649572849274,0.0079892473295331
1732276355601752300,10.27775244140625,-0.005459319334477186,-0.0001331541279796511,0.01438064593821764
1732276355611793700,10.287793701171875,-0.005459319334477186,0.011584409512579441,0.015445878729224205
1732276355621835000,10.2978349609375,0.0009320789249613881,0.008388710208237171,0.0047935484908521175
1732276355631876400,10.30787646484375,0.006258244160562754,0.001997311832383275,-0.006924014538526535
1732276355641917400,10.31791748046875,0.0009320789249613881,0.004127778112888336,-0.01438064593821764
1732276355651958300,10.327958251953126,-0.007589785382151604,0.010519175790250301,-0.015445878729224205
1732276355661999400,10.337999267578125,-0.008655018173158169,0.012649642303586006,-0.016511112451553345
1732276355672040400,10.34804052734375,-0.004394086077809334,0.006258244160562754,-0.017576344311237335
1732276355682081500,10.35808154296875,-0.0033288532868027687,0.006258244160562754,-0.010119713842868805
1732276355692122600,10.36812255859375,-0.005459319334477186,0.011584409512579441,0.0037283156998455524
1732276355702044700,10.378044677734374,-0.0033288532868027687,0.010519175790250301,0.017576344311237335
1732276355711976200,10.38797607421875,0.0009320789249613881,-0.00226362026296556,0.025032976642251015
1732276355721921500,10.397921630859376,0.001997311832383275,-0.007589785382151604,0.030359141528606415
1732276355731883800,10.4078837890625,-0.004394086077809334,-0.004394086077809334,0.030359141528606415
1732276355741865500,10.417865478515624,-0.008655018173158169,0.0030625448562204838,0.022902509197592735
1732276355751868200,10.4278681640625,-0.009720250964164734,0.012649642303586006,0.01118494663387537
1732276355761887700,10.4378876953125,-0.007589785382151604,0.016910573467612267,-0.0037283156998455524
1732276355771929600,10.4479296875,-0.005459319334477186,0.017975807189941406,-0.018641578033566475
1732276355781992200,10.4579921875,-0.005459319334477186,0.014780107885599136,-0.031424373388290405
1732276355792074000,10.468073974609375,-0.008655018173158169,0.013714875094592571,-0.038881003856658936
1732276355802173000,10.4781728515625,-0.011850717477500439,0.017975807189941406,-0.037815771996974945
1732276355812285400,10.488285400390625,-0.012915950268507004,0.016910573467612267,-0.029293907806277275
1732276355822408400,10.498408447265625,-0.011850717477500439,0.012649642303586006,-0.017576344311237335
1732276355832538400,10.508538330078125,-0.008655018173158169,0.009453942999243736,-0.0079892473295331
1732276355842671000,10.518671142578125,-0.005459319334477186,0.007323476951569319,0.0037283156998455524
1732276355852784000,10.5287841796875,-0.0001331541279796511,0.009453942999243736,0.016511112451553345
1732276355862704600,10.53870458984375,0.0030625448562204838,0.008388710208237171,0.028228675946593285
1732276355872635000,10.548634765625,0.0030625448562204838,0.0030625448562204838,0.035685304552316666
1732276355882578700,10.55857861328125,0.0009320789249613881,0.005193010903894901,0.033554840832948685
1732276355892539600,10.56853955078125,0.001997311832383275,0.011584409512579441,0.018641578033566475
1732276355902520000,10.57852001953125,0.0030625448562204838,-0.00226362026296556,-0.0026630824431777
1732276355912516900,10.588516845703126,0.005193010903894901,-0.008655018173158169,-0.012250179424881935
1732276355922536200,10.5985361328125,0.001997311832383275,0.004127778112888336,-0.016511112451553345
1732276355932577800,10.608577880859375,-0.0033288532868027687,0.019041040912270546,-0.0037283156998455524
1732276355942639900,10.618639892578125,-0.007589785382151604,0.017975807189941406,0.00585878174751997
1732276355952721400,10.628721435546876,-0.006524552125483751,0.015845341607928276,-0.0005326165119186044
1732276355962815700,10.638815673828125,-0.006524552125483751,0.0030625448562204838,-0.00905448105186224
1732276355972925000,10.648925048828126,-0.008655018173158169,-0.008655018173158169,-0.0079892473295331
1732276355983040500,10.65904052734375,-0.007589785382151604,-0.010785484686493874,-0.0047935484908521175
1732276355993164500,10.66916455078125,-0.0033288532868027687,-0.008655018173158169,0.0005326165119186044
1732276356003282700,10.67928271484375,0.0030625448562204838,-0.004394086077809334,-0.0026630824431777
1732276356013403000,10.68940283203125,0.007323476951569319,0.001997311832383275,-0.0047935484908521175
1732276356023365400,10.699365478515626,0.007323476951569319,0.009453942999243736,-0.00585878174751997
1732276356033335800,10.709335693359375,0.001997311832383275,0.006258244160562754,-0.0047935484908521175
1732276356043311900,10.719311767578125,-0.0033288532868027687,-0.008655018173158169,-0.0037283156998455524
1732276356053300700,10.72930078125,-0.008655018173158169,-0.018242115154862404,0.0005326165119186044
1732276356063299300,10.73929931640625,-0.010785484686493874,-0.018242115154862404,0.0015978495357558131
1732276356073313500,10.7493134765625,-0.007589785382151604,-0.012915950268507004,0.0005326165119186044
1732276356083344000,10.75934375,-0.0011983871227130294,-0.005459319334477186,-0.0026630824431777
1732276356093390300,10.769390380859376,0.0009320789249613881,-0.0011983871227130294,-0.0026630824431777
1732276356103452000,10.779451904296875,0.0009320789249613881,-0.0001331541279796511,0.0015978495357558131
1732276356113527300,10.78952734375,-0.0001331541279796511,-0.0033288532868027687,0.00585878174751997
1732276356123614200,10.7996142578125,-0.004394086077809334,-0.005459319334477186,0.0079892473295331
1732276356133710800,10.8097109375,-0.005459319334477186,-0.0033288532868027687,0.0079892473295331
1732276356143814100,10.819814208984376,-0.004394086077809334,-0.00226362026296556,0.0079892473295331
1732276356153921800,10.829921875,-0.00226362026296556,-0.0011983871227130294,0.0079892473295331
1732276356164030700,10.84003076171875,0.001997311832383275,0.001997311832383275,0.0037283156998455524
1732276356174104600,10.8501044921875,0.007323476951569319,-0.00226362026296556,-0.00585878174751997
1732276356184145200,10.860145263671875,0.008388710208237171,-0.005459319334477186,-0.013315413147211075
1732276356194185500,10.870185546875,0.005193010903894901,0.001997311832383275,-0.013315413147211075
1732276356204226000,10.88022607421875,-0.004394086077809334,-0.008655018173158169,-0.017576344311237335
1732276356214267000,10.890266845703126,-0.011850717477500439,-0.010785484686493874,-0.021837277337908745
1732276356224307700,10.9003076171875,-0.017176883295178413,-0.005459319334477186,-0.018641578033566475
1732276356234348800,10.910348876953124,-0.013981183059513569,-0.00226362026296556,-0.016511112451553345
1732276356244390000,10.920389892578125,-0.006524552125483751,-0.0033288532868027687,-0.013315413147211075
1732276356254431000,10.930430908203125,0.001997311832383275,-0.0001331541279796511,-0.0026630824431777
1732276356264472300,10.940472412109376,0.008388710208237171,0.005193010903894901,0.00905448105186224
1732276356274513700,10.950513671875,0.011584409512579441,0.006258244160562754,0.01118494663387537
1732276356284555300,10.96055517578125,0.012649642303586006,0.008388710208237171,0.0026630824431777
1732276356294597000,10.97059716796875,0.006258244160562754,0.0030625448562204838,-0.0079892473295331
1732276356304638700,10.980638671875,-0.004394086077809334,0.008388710208237171,-0.013315413147211075
1732276356314680600,10.9906806640625,-0.010785484686493874,0.020106272771954536,-0.01438064593821764
1732276356324722400,11.000722412109376,-0.009720250964164734,0.021171506494283676,-0.015445878729224205
1732276356334764000,11.010763916015625,-0.00226362026296556,0.016910573467612267,-0.016511112451553345
1732276356344806000,11.020805908203124,0.008388710208237171,0.007323476951569319,-0.018641578033566475
1732276356354847000,11.030846923828125,0.007323476951569319,-0.0033288532868027687,-0.017576344311237335
1732276356364888300,11.040888427734375,-0.00226362026296556,0.008388710208237171,-0.0037283156998455524
1732276356374929400,11.050929443359376,-0.0033288532868027687,0.021171506494283676,0.012250179424881935
1732276356384970500,11.060970458984375,0.005193010903894901,0.015845341607928276,0.016511112451553345
1732276356394985700,11.07098583984375,0.019041040912270546,0.0030625448562204838,0.012250179424881935
1732276356404985900,11.08098583984375,0.023301972076296806,-0.006524552125483751,0.0079892473295331
1732276356414985500,11.0909853515625,0.021171506494283676,-0.005459319334477186,0.006924014538526535
1732276356424986600,11.100986572265626,0.017975807189941406,-0.0001331541279796511,0.00585878174751997
1732276356434990300,11.110990234375,0.019041040912270546,-0.00226362026296556,0.0005326165119186044
1732276356444998400,11.120998291015624,0.019041040912270546,-0.008655018173158169,-0.0026630824431777
1732276356455011600,11.131011474609375,0.015845341607928276,-0.012915950268507004,-0.0047935484908521175
1732276356465031200,11.14103125,0.011584409512579441,-0.011850717477500439,-0.0047935484908521175
1732276356475061000,11.15106103515625,0.010519175790250301,-0.010785484686493874,-0.0079892473295331
1732276356485100800,11.161100830078125,0.011584409512579441,-0.013981183059513569,-0.01118494663387537
1732276356495148800,11.171148681640625,0.010519175790250301,-0.017176883295178413,-0.015445878729224205
1732276356505203200,11.181203125,0.006258244160562754,-0.012915950268507004,-0.022902509197592735
1732276356515262500,11.191262451171875,0.005193010903894901,-0.006524552125483751,-0.027163442224264145
1732276356525326000,11.201326171875,0.006258244160562754,-0.004394086077809334,-0.029293907806277275
1732276356535392800,11.211392822265625,0.008388710208237171,-0.005459319334477186,-0.031424373388290405
1732276356545461800,11.221461669921876,0.010519175790250301,-0.006524552125483751,-0.030359141528606415
1732276356555535600,11.23153564453125,0.009453942999243736,-0.0001331541279796511,-0.029293907806277275
1732276356565611500,11.241611572265626,0.010519175790250301,0.008388710208237171,-0.031424373388290405
1732276356575654700,11.251654541015625,0.014780107885599136,0.006258244160562754,-0.038881003856658936
1732276356585675800,11.26167578125,0.020106272771954536,0.004127778112888336,-0.043141938745975494
1732276356595697700,11.27169775390625,0.017975807189941406,0.005193010903894901,-0.037815771996974945
1732276356605725700,11.2817255859375,0.015845341607928276,0.010519175790250301,-0.027163442224264145
1732276356615760600,11.2917607421875,0.015845341607928276,0.007323476951569319,-0.017576344311237335
1732276356625801500,11.301801513671874,0.015845341607928276,-0.0001331541279796511,-0.01118494663387537
1732276356635847000,11.311846923828124,0.013714875094592571,-0.0011983871227130294,-0.0037283156998455524
1732276356645895000,11.32189501953125,0.013714875094592571,0.007323476951569319,0.0037283156998455524
1732276356655944000,11.33194384765625,0.017975807189941406,0.008388710208237171,0.0037283156998455524
1732276356665993500,11.341993408203125,0.023301972076296806,0.006258244160562754,-0.0037283156998455524
1732276356676043300,11.352043212890624,0.028628136962652206,0.006258244160562754,-0.019706811755895615
1732276356686088400,11.36208837890625,0.029693370684981346,-0.013981183059513569,-0.027163442224264145
1732276356696130300,11.37213037109375,0.027562905102968216,-0.013981183059513569,-0.021837277337908745
1732276356706171600,11.382171630859375,0.017975807189941406,0.006258244160562754,-0.016511112451553345
1732276356716212700,11.392212646484374,0.005193010903894901,0.029693370684981346,0.0026630824431777
1732276356726258400,11.402258544921875,0.001997311832383275,0.029693370684981346,0.0079892473295331
1732276356736295000,11.412294921875,0.007323476951569319,0.014780107885599136,-0.006924014538526535
1732276356746336300,11.422336181640626,0.005193010903894901,0.001997311832383275,-0.019706811755895615
1732276356756377600,11.432377685546875,0.001997311832383275,-0.0033288532868027687,-0.025032976642251015
1732276356766423800,11.442423828125,-0.0001331541279796511,-0.0033288532868027687,-0.022902509197592735
1732276356776460300,11.452460205078125,-0.0001331541279796511,-0.0001331541279796511,-0.018641578033566475
1732276356786501600,11.462501708984375,0.0030625448562204838,0.007323476951569319,-0.01438064593821764
1732276356796542700,11.472542724609376,0.004127778112888336,0.016910573467612267,-0.00905448105186224
1732276356806588700,11.482588623046874,0.004127778112888336,0.016910573467612267,0.0015978495357558131
1732276356816625400,11.49262548828125,-0.0001331541279796511,0.007323476951569319,0.0079892473295331
1732276356826667000,11.5026669921875,-0.005459319334477186,-0.00226362026296556,0.010119713842868805
1732276356836707800,11.512707763671875,-0.009720250964164734,-0.006524552125483751,0.0079892473295331
1732276356846753500,11.52275341796875,-0.012915950268507004,-0.0011983871227130294,0.0026630824431777
1732276356856790300,11.532790283203125,-0.010785484686493874,0.007323476951569319,-0.0026630824431777
1732276356866832100,11.54283203125,-0.008655018173158169,0.011584409512579441,-0.0047935484908521175
1732276356876878800,11.55287890625,-0.006524552125483751,0.013714875094592571,-0.0079892473295331
1732276356886929700,11.5629296875,-0.005459319334477186,0.022236740216612816,-0.00905448105186224
1732276356896984300,11.572984375,-0.0001331541279796511,0.030758604407310486,-0.0079892473295331
1732276356907042000,11.5830419921875,0.007323476951569319,0.024367205798625946,-0.0037283156998455524
1732276356917102000,11.59310205078125,0.012649642303586006,0.012649642303586006,0.0005326165119186044
1732276356927163600,11.60316357421875,0.012649642303586006,0.005193010903894901,0.01118494663387537
1732276356937225700,11.613225830078125,0.006258244160562754,0.008388710208237171,0.022902509197592735
1732276356947282000,11.623281982421876,-0.0001331541279796511,0.012649642303586006,0.027163442224264145
1732276356957323300,11.6333232421875,-0.004394086077809334,0.009453942999243736,0.026098208501935005
1732276356967364600,11.643364501953124,-0.006524552125483751,0.011584409512579441,0.023967742919921875
1732276356977405700,11.65340576171875,-0.012915950268507004,0.021171506494283676,0.023967742919921875
1732276356987446500,11.663446533203125,-0.018242115154862404,0.015845341607928276,0.023967742919921875
1732276356997487400,11.6734873046875,-0.020372580736875534,0.006258244160562754,0.018641578033566475
1732276357007528200,11.683528076171875,-0.019307348877191544,0.006258244160562754,0.016511112451553345
1732276357017569000,11.693569091796874,-0.013981183059513569,0.012649642303586006,0.010119713842868805
1732276357027609900,11.70360986328125,-0.006524552125483751,0.013714875094592571,0.00585878174751997
1732276357037651000,11.71365087890625,-0.0033288532868027687,0.017975807189941406,0.00585878174751997
1732276357047692300,11.7236923828125,-0.00226362026296556,0.022236740216612816,0.016511112451553345
1732276357057733400,11.7337333984375,-0.00226362026296556,0.021171506494283676,0.025032976642251015
1732276357067774700,11.743774658203124,-0.004394086077809334,0.014780107885599136,0.028228675946593285
1732276357077816000,11.753816162109375,-0.010785484686493874,0.012649642303586006,0.031424373388290405
1732276357087739100,11.7637392578125,-0.013981183059513569,0.017975807189941406,0.034620072692632675
1732276357097672000,11.773671875,-0.013981183059513569,0.021171506494283676,0.031424373388290405
1732276357107618000,11.7836181640625,-0.010785484686493874,0.014780107885599136,0.015445878729224205
1732276357117581000,11.7935810546875,-0.008655018173158169,0.007323476951569319,0.0005326165119186044
1732276357127563000,11.80356298828125,-0.015046416781842709,0.010519175790250301,-0.0026630824431777
1732276357137566000,11.81356591796875,-0.019307348877191544,0.017975807189941406,0.006924014538526535
1732276357147590400,11.82359033203125,-0.017176883295178413,0.017975807189941406,0.017576344311237335
1732276357157636000,11.833635986328124,-0.008655018173158169,0.010519175790250301,0.018641578033566475
1732276357167702300,11.843702392578125,0.0009320789249613881,-0.0001331541279796511,0.01438064593821764
1732276357177786600,11.85378662109375,0.0009320789249613881,-0.015046416781842709,0.00905448105186224
1732276357187887400,11.863887451171875,-0.011850717477500439,-0.007589785382151604,0.022902509197592735
1732276357198001000,11.8740009765625,-0.018242115154862404,0.012649642303586006,0.041011471301317215
1732276357208124200,11.884124267578125,-0.013981183059513569,0.009453942999243736,0.043141938745975494
1732276357218253300,11.89425341796875,-0.005459319334477186,-0.0011983871227130294,0.033554840832948685
1732276357228384500,11.904384521484374,-0.00226362026296556,-0.011850717477500439,0.020772043615579605
1732276357238478600,11.914478515625,-0.008655018173158169,-0.011850717477500439,0.01438064593821764
1732276357248520000,11.92452001953125,-0.013981183059513569,-0.00226362026296556,0.010119713842868805
1732276357258561300,11.934561279296876,-0.012915950268507004,0.006258244160562754,0.0015978495357558131
1732276357268602400,11.944602294921875,-0.007589785382151604,0.004127778112888336,-0.0047935484908521175
1732276357278643700,11.954643798828124,-0.004394086077809334,0.0009320789249613881,-0.00905448105186224
1732276357288684800,11.964684814453125,-0.006524552125483751,0.004127778112888336,-0.0037283156998455524
1732276357298725600,11.9747255859375,-0.008655018173158169,0.008388710208237171,0.0079892473295331
1732276357308766700,11.9847666015625,-0.005459319334477186,-0.0011983871227130294,0.015445878729224205
1732276357318807800,11.994807861328125,0.0009320789249613881,-0.010785484686493874,0.019706811755895615
1732276357328849000,12.004848876953124,0.0030625448562204838,-0.018242115154862404,0.025032976642251015
1732276357338890000,12.014889892578125,0.0009320789249613881,-0.021437814459204674,0.032489608973264694
1732276357348931000,12.02493115234375,-0.004394086077809334,-0.023568280041217804,0.038881003856658936
1732276357358972200,12.03497216796875,-0.008655018173158169,-0.023568280041217804,0.039946239441633224
1732276357369013500,12.045013427734375,-0.007589785382151604,-0.015046416781842709,0.036750540137290955
1732276357379054600,12.0550546875,-0.0011983871227130294,-0.009720250964164734,0.032489608973264694
1732276357389096000,12.065095947265625,0.009453942999243736,-0.011850717477500439,0.027163442224264145
1732276357399137300,12.07513720703125,0.019041040912270546,-0.010785484686493874,0.022902509197592735
1732276357409178600,12.0851787109375,0.022236740216612816,-0.004394086077809334,0.01118494663387537
1732276357419220200,12.09522021484375,0.019041040912270546,-0.017176883295178413,0.00585878174751997
1732276357429261600,12.105261474609375,0.016910573467612267,-0.019307348877191544,0.015445878729224205
1732276357439303200,12.11530322265625,0.009453942999243736,-0.005459319334477186,0.025032976642251015
1732276357449344800,12.1253447265625,0.004127778112888336,0.012649642303586006,0.041011471301317215
1732276357459386000,12.13538623046875,0.0009320789249613881,0.007323476951569319,0.046337638050317764
1732276357469427500,12.145427490234376,0.004127778112888336,-0.0001331541279796511,0.035685304552316666
1732276357479468800,12.15546875,0.007323476951569319,-0.0033288532868027687,0.020772043615579605
1732276357489510000,12.165510009765624,0.006258244160562754,-0.006524552125483751,0.006924014538526535
1732276357499551200,12.17555126953125,0.004127778112888336,-0.009720250964164734,0.00585878174751997
1732276357509592600,12.185592529296875,0.004127778112888336,-0.006524552125483751,0.010119713842868805
1732276357519633700,12.195633544921876,0.006258244160562754,-0.0011983871227130294,0.012250179424881935
1732276357529675000,12.205675048828125,0.008388710208237171,0.005193010903894901,0.015445878729224205
