time,seconds_elapsed,z,y,x
1732276345460019200,0.136019287109375,-0.5139074325561523,0.015271663665771484,-0.65492844581604
1732276345470088400,0.14608837890625,0.5175132751464844,0.1530933380126953,-0.7478041648864746
1732276345480157700,0.15615771484375,1.5474176406860352,0.03580474853515625,-0.274585485458374
1732276345490202400,0.166202392578125,2.208371162414551,-0.17984867095947266,0.6385694742202759
1732276345500243500,0.176243408203125,1.9765949249267578,-0.3748140335083008,0.5452381372451782
1732276345510284800,0.186284912109375,1.347792625427246,-0.2544059753417969,0.35944950580596924
1732276345520326000,0.196325927734375,1.0661430358886719,-0.5907983779907227,0.3868222236633301
1732276345530367200,0.2063671875,-0.02421855926513672,-1.0455312728881836,0.4487234354019165
1732276345540408600,0.21640869140625,-1.4617347717285156,-1.1353745460510254,0.8902513980865479
1732276345550449700,0.22644970703125,-2.7363295555114746,-0.8869290351867676,1.6478757858276367
1732276345560491000,0.236490966796875,-3.6727042198181152,-0.33188486099243164,2.372652053833008
1732276345570532000,0.246531982421875,-3.6897659301757812,0.06823205947875977,2.389881134033203
1732276345580573000,0.256572998046875,-3.4223532676696777,0.2976398468017578,1.8975721597671509
1732276345590614000,0.266614013671875,-3.2854137420654297,0.49405431747436523,1.5496972799301147
1732276345600654800,0.27665478515625,-3.094442844390869,0.5594148635864258,1.0527151823043823
1732276345610696000,0.286696044921875,-2.8342676162719727,0.49994421005249023,0.6247985363006592
1732276345620737000,0.296737060546875,-2.6244473457336426,0.2993292808532715,0.44911837577819824
1732276345630778400,0.3067783203125,-2.0501708984375,0.0002827644348144531,0.34257766604423523
1732276345640819500,0.3168193359375,-1.231278419494629,-0.10082626342773438,0.06280261278152466
1732276345650860800,0.32686083984375,-0.36129045486450195,0.2047557830810547,-0.21188950538635254
1732276345660902000,0.33690185546875,0.2837033271789551,0.7244367599487305,-0.6177030801773071
1732276345670943200,0.346943115234375,0.801823616027832,1.0460853576660156,-1.4109071493148804
1732276345680984800,0.35698486328125,0.9707746505737305,1.4724054336547852,-2.6374635696411133
1732276345691026200,0.367026123046875,0.9124536514282227,2.2373971939086914,-4.333079814910889
1732276345701067500,0.377067626953125,0.6312217712402344,1.6108551025390625,-3.698946475982666
1732276345711108900,0.38710888671875,0.3533210754394531,-0.22296762466430664,-0.4200640916824341
1732276345721150500,0.397150390625,-0.005471229553222656,-0.29079484939575195,0.4032910466194153
1732276345731191800,0.40719189453125,-0.07245922088623047,-0.4685969352722168,0.3371478319168091
1732276345741233200,0.417233154296875,0.021352767944335938,-0.21149444580078125,0.10026156902313232
1732276345751274500,0.4272744140625,0.1949634552001953,0.24465131759643555,0.4007682204246521
1732276345761316000,0.437316162109375,0.44010353088378906,-0.31459856033325195,-0.22502028942108154
1732276345771357200,0.447357177734375,0.19129276275634766,-0.20559453964233398,-0.11455237865447998
1732276345781398500,0.4573984375,0.683863639831543,0.14708948135375977,0.20224064588546753
1732276345791440000,0.46743994140625,0.6881322860717773,0.12558698654174805,0.21557432413101196
1732276345801481000,0.47748095703125,0.2939720153808594,0.17297887802124023,-0.042241036891937256
1732276345811522300,0.487522216796875,0.4738187789916992,0.1716752052307129,-0.12986218929290771
1732276345821563600,0.497563720703125,0.7201395034790039,0.13375329971313477,-0.1518470048904419
1732276345831604700,0.507604736328125,0.9300575256347656,0.01534271240234375,-0.3819115161895752
1732276345841646000,0.51764599609375,1.3128061294555664,-0.1146693229675293,-0.5660907626152039
1732276345851687400,0.5276875,1.8345108032226562,-0.28363466262817383,-0.5146857500076294
1732276345861728500,0.537728515625,2.114108085632324,-0.2695450782775879,-0.16508418321609497
1732276345871769900,0.547769775390625,2.2423391342163086,-0.28375959396362305,0.3969157040119171
1732276345881811000,0.55781103515625,1.7805843353271484,-0.17429304122924805,0.6599411368370056
1732276345891852300,0.567852294921875,1.2397327423095703,-0.009743213653564453,0.45613497495651245
1732276345901893600,0.5778935546875,0.8619356155395508,0.09577274322509766,0.2031765580177307
1732276345911814400,0.587814453125,0.5628862380981445,0.14042139053344727,-0.08677017688751221
1732276345921745000,0.597744873046875,0.26517772674560547,0.1497035026550293,-0.5617547035217285
1732276345931689000,0.60768896484375,0.043755531311035156,-0.030420780181884766,-0.6406252980232239
1732276345941650200,0.617650146484375,-0.09680652618408203,0.007280826568603516,-0.8700065612792969
1732276345951625700,0.627625732421875,-0.050167083740234375,-0.18682432174682617,-0.3269609808921814
1732276345961623300,0.637623291015625,-0.6510324478149414,0.026181697845458984,-0.35407528281211853
1732276345971643000,0.647642822265625,-1.5025334358215332,-0.04627370834350586,0.8858165740966797
1732276345981685200,0.657685302734375,-2.1717567443847656,0.5017833709716797,0.9283400774002075
1732276345991748900,0.667748779296875,-2.66831111907959,0.8840527534484863,0.7024219036102295
1732276346001832200,0.677832275390625,-2.6450414657592773,0.44670677185058594,1.2860760688781738
1732276346011933000,0.687932861328125,-2.4591712951660156,0.38060855865478516,0.9199959635734558
1732276346022047700,0.6980478515625,-1.8755683898925781,0.4603886604309082,0.27987024188041687
1732276346032173000,0.708173095703125,-1.9237008094787598,0.046572208404541016,-0.022192083299160004
1732276346042305500,0.718305419921875,-1.2958927154541016,0.6168608665466309,-1.3358917236328125
1732276346052440800,0.72844091796875,-0.6779317855834961,0.5357346534729004,-0.40629148483276367
1732276346062553600,0.7385537109375,-0.04905891418457031,-0.06489801406860352,1.5184035301208496
1732276346072595000,0.748594970703125,0.28752803802490234,-0.04019498825073242,0.8780261278152466
1732276346082636300,0.75863623046875,0.023416519165039062,0.1582622528076172,0.47992807626724243
1732276346092677400,0.768677490234375,0.09334850311279297,0.17507410049438477,0.568235456943512
1732276346102718700,0.77871875,0.5708332061767578,0.10383844375610352,0.5857369899749756
1732276346112759800,0.788759765625,0.633509635925293,-0.42345619201660156,0.9968693256378174
1732276346122801200,0.79880126953125,0.45899009704589844,0.22517776489257812,-0.28528130054473877
1732276346132842500,0.808842529296875,1.0773544311523438,0.5833773612976074,-0.740756630897522
1732276346142883600,0.818883544921875,1.4511022567749023,-0.4811396598815918,0.43947261571884155
1732276346152925000,0.828925048828125,1.2507038116455078,-0.39403343200683594,-0.029793530702590942
1732276346162965500,0.838965576171875,1.0676212310791016,-0.07385015487670898,-1.062865972518921
1732276346173006000,0.849006103515625,0.9658308029174805,-0.23453378677368164,-0.88456791639328
1732276346183046700,0.859046630859375,0.8489217758178711,-0.21178054809570312,-0.3012230396270752
1732276346193087500,0.86908740234375,0.5209779739379883,-0.03383922576904297,0.21286937594413757
1732276346203128300,0.87912841796875,0.07239532470703125,0.14405155181884766,0.46349453926086426
1732276346213169200,0.889169189453125,-0.4753737449645996,0.34202051162719727,0.19599509239196777
1732276346223129000,0.899129150390625,-1.4911227226257324,0.27002620697021484,-0.743209719657898
1732276346233095700,0.909095703125,-1.048412799835205,0.23169803619384766,0.05846288800239563
1732276346243067000,0.91906689453125,0.029500484466552734,0.09915924072265625,0.5953660011291504
1732276346253050000,0.929050048828125,0.9635424613952637,0.4617457389831543,0.08487355709075928
1732276346263042000,0.9390419921875,1.8177828788757324,-0.23371076583862305,1.0384910106658936
1732276346273049600,0.949049560546875,2.141432762145996,0.125640869140625,-0.0198938250541687
1732276346283068400,0.959068359375,1.697615146636963,-0.08408832550048828,-0.7701201438903809
1732276346293103900,0.969103759765625,1.1251554489135742,-0.23932600021362305,-0.6727554798126221
1732276346303150800,0.97915087890625,0.40172910690307617,-0.1878066062927246,-0.6942352056503296
1732276346313213200,0.989213134765625,-0.5290212631225586,-0.37029409408569336,-0.25591373443603516
1732276346323284700,0.99928466796875,-0.8979330062866211,0.6887149810791016,-0.5898561477661133
1732276346333368800,1.009368896484375,-1.6154828071594238,-0.4664902687072754,-0.4865987002849579
1732276346343458300,1.019458251953125,-1.4204750061035156,-0.36470508575439453,0.7342584133148193
1732276346353555700,1.0295556640625,0.18331384658813477,0.5632309913635254,0.331437885761261
1732276346363658800,1.03965869140625,0.7302045822143555,-0.17358732223510742,0.7082144021987915
1732276346373764400,1.049764404296875,0.3389744758605957,-0.044777870178222656,0.23783153295516968
1732276346383870200,1.0598701171875,-0.5936355590820312,-0.05945301055908203,-0.8044726252555847
1732276346393915000,1.069914794921875,-1.2627596855163574,0.03033161163330078,-0.26171213388442993
1732276346403955700,1.079955810546875,-1.177422046661377,-0.011974334716796875,0.5878382921218872
1732276346413996300,1.089996337890625,-1.6878209114074707,-0.024538040161132812,1.143505334854126
1732276346424037000,1.100037109375,-2.181309223175049,0.3543734550476074,0.6347029805183411
1732276346434078000,1.110077880859375,-1.9803175926208496,0.3309159278869629,0.22780197858810425
1732276346444118800,1.120118896484375,-1.932703971862793,-0.19170045852661133,0.7409441471099854
1732276346454160000,1.130159912109375,-1.6852726936340332,0.13390827178955078,0.2808084487915039
1732276346464201000,1.140200927734375,-1.4753470420837402,0.14136934280395508,-0.005513429641723633
1732276346474242000,1.150241943359375,-1.030357837677002,-0.13010072708129883,-0.04836893081665039
1732276346484283400,1.160283447265625,-0.28163814544677734,-0.17925500869750977,-0.18330508470535278
1732276346494324700,1.17032470703125,0.4550619125366211,-0.21257495880126953,-0.2140675187110901
1732276346504366300,1.180366455078125,1.0891838073730469,-0.268038272857666,-0.10114437341690063
1732276346514408000,1.190407958984375,1.5004510879516602,-0.2813234329223633,-0.10012072324752808
1732276346524449500,1.200449462890625,1.6154475212097168,-0.28183746337890625,-0.2068244218826294
1732276346534491100,1.2104912109375,1.3875460624694824,-0.2393198013305664,-0.16277706623077393
1732276346544533000,1.220532958984375,0.9210090637207031,-0.15582990646362305,0.01223134994506836
1732276346554574600,1.23057470703125,0.31279754638671875,-0.07005023956298828,0.13521671295166016
1732276346564496100,1.24049609375,-0.15050363540649414,-0.020766735076904297,0.06065690517425537
1732276346574427100,1.25042724609375,-0.48671865463256836,-0.005527019500732422,-0.05574685335159302
1732276346584371700,1.260371826171875,-0.6554155349731445,0.02492237091064453,-0.24353593587875366
1732276346594333200,1.270333251953125,-0.6720938682556152,0.08479022979736328,-0.37121182680130005
1732276346604314000,1.280314208984375,-0.40874481201171875,0.08778762817382812,-0.4951983392238617
1732276346614316300,1.29031640625,0.10673856735229492,0.05521965026855469,-0.40811556577682495
1732276346624340200,1.30034033203125,0.6572785377502441,0.0406184196472168,-0.41661596298217773
1732276346634385700,1.3103857421875,1.0794010162353516,0.04078960418701172,-0.5655174255371094
1732276346644451800,1.320451904296875,1.2188515663146973,-0.12616968154907227,-0.4677966833114624
1732276346654536700,1.33053662109375,1.435877799987793,-0.2611236572265625,-0.27189427614212036
1732276346664636000,1.340635986328125,1.8977770805358887,-0.2651381492614746,-0.3222190737724304
1732276346674745300,1.350745361328125,2.7300267219543457,-0.3131446838378906,-0.29573631286621094
1732276346684860400,1.3608603515625,3.8349833488464355,-0.04974365234375,-0.8734948635101318
1732276346694977500,1.3709775390625,4.419083595275879,-1.0980372428894043,-0.31848353147506714
1732276346705077000,1.381076904296875,5.7391180992126465,-0.9822492599487305,-0.3489614725112915
1732276346715115500,1.391115478515625,5.476548194885254,-0.6929683685302734,-1.9458394050598145
1732276346725154000,1.401154052734375,3.9465436935424805,-0.9928531646728516,-2.3400814533233643
1732276346735192800,1.41119287109375,2.852349281311035,-0.9748835563659668,-2.193197250366211
1732276346745236200,1.421236328125,2.036510467529297,-0.9684281349182129,-1.7415411472320557
1732276346755282000,1.431281982421875,1.3765721321105957,-1.0020265579223633,-1.1505932807922363
1732276346765328600,1.44132861328125,1.5684452056884766,-0.9646015167236328,-0.6558237075805664
1732276346775362300,1.4513623046875,2.6223912239074707,-1.032773494720459,-0.33863723278045654
1732276346785396200,1.461396240234375,3.6506972312927246,-1.2194547653198242,-0.05402874946594238
1732276346795430700,1.4714306640625,4.552725315093994,-0.5802121162414551,-0.9973030090332031
1732276346805466000,1.481466064453125,3.9102015495300293,-1.9743309020996094,0.13782382011413574
1732276346815502600,1.491502685546875,4.015576362609863,-2.1481266021728516,0.8688812255859375
1732276346825544200,1.501544189453125,2.9651217460632324,-1.6026792526245117,-1.0110440254211426
1732276346835588600,1.511588623046875,1.880760669708252,-2.1304516792297363,-1.3084347248077393
1732276346845634000,1.521634033203125,2.610734462738037,-2.5118331909179688,-0.6989262104034424
1732276346855680000,1.531679931640625,4.422971248626709,-2.9331583976745605,-0.3752274513244629
1732276346865726200,1.541726318359375,6.428881645202637,-3.8203086853027344,-0.28261876106262207
1732276346875777300,1.55177734375,9.509305953979492,-4.907048225402832,-0.25325870513916016
1732276346885832400,1.56183251953125,13.037796020507812,-6.277956962585449,-0.17098402976989746
1732276346895891000,1.571890869140625,14.22449779510498,-7.761890411376953,-0.40284180641174316
1732276346905950000,1.581949951171875,10.708413124084473,-8.37332820892334,-0.6520867347717285
1732276346915953200,1.591953125,4.01603889465332,-7.365622043609619,-0.7459311485290527
1732276346925957400,1.601957275390625,0.29959529638290405,-6.50303840637207,-0.09388852119445801
1732276346935964000,1.6119638671875,1.2070868015289307,-6.406365394592285,-1.496169090270996
1732276346945974300,1.621974365234375,-6.636072158813477,-6.527275562286377,-1.8723795413970947
1732276346955989200,1.6319892578125,-17.482730865478516,-7.459462642669678,2.86452579498291
1732276346966009900,1.642009765625,-36.5666389465332,-9.421769142150879,12.052656173706055
1732276346976037000,1.652037109375,-40.13255310058594,-8.809218406677246,14.53628921508789
1732276346986075400,1.662075439453125,-24.939834594726562,-3.517406940460205,0.9341330528259277
1732276346996120000,1.6721201171875,-14.096994400024414,-4.090511798858643,1.7073032855987549
1732276347006175200,1.68217529296875,-8.618377685546875,-0.20063495635986328,0.14619994163513184
1732276347016235300,1.6922353515625,-2.6803603172302246,2.285045623779297,-2.961686611175537
1732276347026304300,1.70230419921875,2.6458234786987305,2.6185855865478516,-4.156747817993164
1732276347036375600,1.71237548828125,4.323846817016602,2.9714479446411133,-4.074970722198486
1732276347046452700,1.72245263671875,4.947409629821777,1.2266006469726562,-1.7128047943115234
1732276347056518000,1.732517822265625,1.4887242317199707,-0.6779394149780273,-1.7044075727462769
1732276347066587100,1.742587158203125,0.12042713165283203,-1.269582748413086,-2.2944252490997314
1732276347076600800,1.752600830078125,0.3040766716003418,-0.40723133087158203,-3.6167807579040527
1732276347086620700,1.76262060546875,-0.7156968116760254,-0.4025564193725586,-2.24110746383667
1732276347096642000,1.77264208984375,-0.7648985385894775,-0.01256561279296875,0.3107001781463623
1732276347106670600,1.782670654296875,-0.19809985160827637,0.7990331649780273,1.7795536518096924
1732276347116706800,1.792706787109375,-0.4229137897491455,0.5363492965698242,2.3332436084747314
1732276347126750000,1.80275,-0.6240990161895752,-0.762232780456543,2.777602195739746
1732276347136800300,1.81280029296875,-0.9030461311340332,-0.4617576599121094,1.1850941181182861
1732276347146857000,1.82285693359375,-1.5116877555847168,0.48557186126708984,-1.4990808963775635
1732276347156918800,1.832918701171875,-1.9626166820526123,0.44310855865478516,-2.237408399581909
1732276347166985200,1.842985107421875,-1.667501449584961,-0.11311626434326172,-1.3902583122253418
1732276347177043000,1.85304296875,-0.46783900260925293,0.35376739501953125,-1.4427759647369385
1732276347187103500,1.863103515625,0.18900847434997559,-0.02256011962890625,-0.24571919441223145
1732276347197166000,1.873166015625,0.034247636795043945,-0.5063037872314453,0.7530591487884521
1732276347207229700,1.883229736328125,0.016520023345947266,-0.5543107986450195,0.693310022354126
1732276347217293600,1.89329345703125,0.22877120971679688,0.2197704315185547,0.29471850395202637
1732276347227339500,1.903339599609375,0.436995267868042,0.04233074188232422,0.9512531757354736
1732276347237380900,1.913380859375,0.3446998596191406,-0.06247997283935547,1.3382008075714111
1732276347247422000,1.923421875,0.6283996105194092,-0.1864919662475586,1.619779109954834
1732276347257463300,1.93346337890625,0.6934442520141602,-0.2965517044067383,1.3622896671295166
1732276347267504600,1.943504638671875,0.05669879913330078,0.13381576538085938,0.2774384021759033
1732276347277545700,1.953545654296875,-1.0154304504394531,0.2959918975830078,-0.28507542610168457
1732276347287587000,1.963587158203125,-1.8455610275268555,0.2891426086425781,-0.3038156032562256
1732276347297628400,1.97362841796875,-2.36149001121521,0.058409690856933594,-0.393996000289917
1732276347307669200,1.983669189453125,-2.862380266189575,-0.4535808563232422,-0.5621609687805176
1732276347317710300,1.99371044921875,-3.117929458618164,-1.2794551849365234,-0.30234456062316895
1732276347327751400,2.00375146484375,-2.5605485439300537,-1.3261003494262695,-0.9811515808105469
1732276347337792500,2.01379248046875,-1.5432255268096924,-0.8165903091430664,-1.3828285932540894
1732276347347833600,2.02383349609375,-0.28764820098876953,-0.733119010925293,-0.6294145584106445
1732276347357874700,2.033874755859375,0.8960614204406738,-0.6281118392944336,0.403796911239624
1732276347367915800,2.043915771484375,1.2190089225769043,-0.1675128936767578,1.127427339553833
1732276347377956900,2.053956787109375,-0.35881471633911133,0.058834075927734375,1.4334464073181152
1732276347387998200,2.063998291015625,-1.4680378437042236,0.03360748291015625,1.0303044319152832
1732276347398039600,2.07403955078125,-2.716916084289551,0.1383523941040039,-0.004770040512084961
1732276347408081000,2.084080810546875,-3.609668254852295,-0.3651580810546875,-0.47082972526550293
1732276347418122200,2.094122314453125,-3.3466081619262695,-0.580531120300293,-1.1067980527877808
1732276347428163600,2.10416357421875,-2.9688220024108887,-0.8592681884765625,-1.554020643234253
1732276347438205000,2.114204833984375,-2.221189022064209,-0.893986701965332,-1.3933805227279663
1732276347448246300,2.124246337890625,-1.0734065771102905,-0.5896596908569336,-0.887730598449707
1732276347458287600,2.13428759765625,0.41618505120277405,-0.14256763458251953,-0.07112836837768555
1732276347468329000,2.144328857421875,1.501198172569275,-0.11235713958740234,1.0017621517181396
1732276347478370300,2.154370361328125,2.116041660308838,0.06393718719482422,1.7556021213531494
1732276347488411600,2.16441162109375,1.8601953983306885,0.41172027587890625,2.0153703689575195
1732276347498453000,2.174452880859375,0.06340420246124268,0.4999113082885742,1.8017148971557617
1732276347508494300,2.184494384765625,-2.1728975772857666,0.4871044158935547,1.2670083045959473
1732276347518535700,2.19453564453125,-4.067752361297607,0.4325113296508789,0.5142533779144287
1732276347528577000,2.204576904296875,-4.767693996429443,0.2677459716796875,-0.40282201766967773
1732276347538618400,2.214618408203125,-3.4992787837982178,-0.18936729431152344,-1.305795669555664
1732276347548659500,2.224659423828125,-1.4869303703308105,-0.9301185607910156,-1.5552709102630615
1732276347558700800,2.23470068359375,0.35732966661453247,-0.7129859924316406,-2.5974061489105225
1732276347568742000,2.244741943359375,1.4391751289367676,-0.7964115142822266,-2.952669620513916
1732276347578783000,2.254782958984375,1.6811747550964355,-1.0658025741577148,-2.62646746635437
1732276347588823800,2.26482373046875,1.4441075325012207,-2.2530059814453125,-0.588115930557251
1732276347598864600,2.27486474609375,1.3941688537597656,-2.613149642944336,1.2567722797393799
1732276347608905500,2.284905517578125,1.4201040267944336,-1.9968523979187012,2.2221875190734863
1732276347618946300,2.2949462890625,1.723874807357788,-1.4117755889892578,2.0594561100006104
1732276347628987400,2.3049873046875,2.127526044845581,-0.9712562561035156,1.0030517578125
1732276347639028500,2.315028564453125,2.3135945796966553,-0.6827859878540039,-0.19201898574829102
1732276347649069600,2.325069580078125,2.4729361534118652,-0.45227527618408203,-1.138043761253357
1732276347659111000,2.33511083984375,2.3577346801757812,-0.2773418426513672,-1.1472432613372803
1732276347669152300,2.34515234375,1.862241268157959,-0.3293266296386719,-0.8242232799530029
1732276347679193900,2.35519384765625,2.028301477432251,-0.35352420806884766,-0.464280366897583
1732276347689147400,2.3651474609375,2.18527889251709,-0.29973506927490234,-0.14684534072875977
1732276347699108000,2.375108154296875,2.3159019947052,-0.2593393325805664,-0.325791597366333
1732276347709079000,2.3850791015625,2.5280513763427734,-0.041980743408203125,-0.48125553131103516
1732276347719062000,2.39506201171875,2.803765296936035,0.44070911407470703,-0.7211737632751465
1732276347729059600,2.4050595703125,3.444176197052002,0.2041168212890625,-0.06708693504333496
1732276347739072500,2.415072509765625,4.471620082855225,-0.6702666282653809,1.594914436340332
1732276347749101300,2.425101318359375,5.313161849975586,-0.4724712371826172,1.6622157096862793
1732276347759146000,2.43514599609375,5.657334804534912,-0.13503646850585938,0.9277372360229492
1732276347769205800,2.445205810546875,5.82414436340332,-0.3572053909301758,0.2969193458557129
1732276347779279000,2.455279052734375,5.565899848937988,-0.31265735626220703,-0.23561692237854004
1732276347789363700,2.46536376953125,5.597382545471191,-0.22991180419921875,-0.6499879360198975
1732276347799457800,2.475457763671875,5.845517635345459,-0.615788459777832,-0.6849374771118164
1732276347809559300,2.485559326171875,6.416533470153809,-0.6949710845947266,-0.5844244956970215
1732276347819665200,2.4956650390625,5.695314407348633,-0.7888269424438477,-0.46302366256713867
1732276347829772500,2.5057724609375,4.615658283233643,-1.1012005805969238,-1.1528635025024414
1732276347839856400,2.5158564453125,4.077703475952148,-1.3864054679870605,-1.371993899345398
1732276347849897700,2.525897705078125,4.434253692626953,-1.7325730323791504,-0.9279302358627319
1732276347859938800,2.535938720703125,7.001654624938965,-0.7165975570678711,-1.5745468139648438
1732276347869980200,2.545980224609375,9.329626083374023,-2.2744603157043457,-0.9103224277496338
1732276347880021200,2.556021240234375,10.538472175598145,-4.08546257019043,-0.4646477699279785
1732276347890062600,2.5660625,10.942288398742676,-4.482036590576172,-1.7961419820785522
1732276347900104000,2.57610400390625,9.554600715637207,-5.161599636077881,-4.373629093170166
1732276347910145000,2.58614501953125,7.868771553039551,-4.783676624298096,-6.467726707458496
1732276347920185900,2.596185791015625,5.591015338897705,-4.578165531158447,-7.067461013793945
1732276347930227000,2.60622705078125,0.8418079614639282,-5.770608901977539,-4.561090469360352
1732276347940268000,2.61626806640625,-6.260770797729492,-7.732904434204102,1.3836114406585693
1732276347950309000,2.62630908203125,-29.126718521118164,-8.719230651855469,4.586321830749512
1732276347960350200,2.63635009765625,-60.86107635498047,-5.232213973999023,6.440179824829102
1732276347970391300,2.646391357421875,-42.63386535644531,-2.252042293548584,1.7156095504760742
1732276347980432600,2.6564326171875,-11.984633445739746,-0.48291015625,-0.14483165740966797
1732276347990473700,2.6664736328125,4.312607765197754,-0.2094554901123047,-0.1334669589996338
1732276348000515000,2.67651513671875,12.05673885345459,-0.7544946670532227,-1.3059178590774536
1732276348010556400,2.686556396484375,11.837499618530273,-0.3877696990966797,-2.3051228523254395
1732276348020597800,2.69659765625,8.723981857299805,0.644526481628418,-2.2324328422546387
1732276348030639400,2.706639404296875,4.605410099029541,1.1290740966796875,-1.0800890922546387
1732276348040680700,2.7166806640625,-0.05180811882019043,0.9346981048583984,0.25183773040771484
1732276348050722000,2.72672216796875,-3.5233705043792725,0.6751747131347656,1.8832175731658936
1732276348060763400,2.736763427734375,-5.129945278167725,0.35742759704589844,2.880150556564331
1732276348070805000,2.746804931640625,-4.920414924621582,0.22666454315185547,2.7684895992279053
1732276348080846300,2.756846435546875,-4.112636566162109,0.031167984008789062,1.9050867557525635
1732276348090887700,2.7668876953125,-3.529006242752075,-0.26804447174072266,0.6551213264465332
1732276348100928800,2.7769287109375,-2.933685779571533,-0.6244735717773438,-0.285083532333374
1732276348110970000,2.78697021484375,-1.8501567840576172,-0.9343814849853516,-0.9456663131713867
1732276348121011200,2.79701123046875,-0.7578728199005127,-1.0605716705322266,-1.1876845359802246
1732276348131052300,2.80705224609375,0.5627349615097046,-1.1059188842773438,-1.2196028232574463
1732276348141093400,2.81709326171875,0.9049861431121826,-0.9209480285644531,-0.6955537796020508
1732276348151122400,2.827122314453125,0.7208417654037476,-0.5321521759033203,0.04784679412841797
1732276348161057500,2.8370576171875,0.1412062644958496,-0.23339176177978516,0.8529174327850342
1732276348171001900,2.847001953125,-0.9499727487564087,-0.1785135269165039,0.8957118988037109
1732276348180958500,2.85695849609375,-3.3003554344177246,-0.532012939453125,0.8534986972808838
1732276348190930400,2.866930419921875,-3.587930679321289,1.2990398406982422,0.5141355991363525
1732276348200915500,2.87691552734375,-3.19578218460083,0.8275852203369141,1.0048305988311768
1732276348210919700,2.886919677734375,-4.441901206970215,-0.4264078140258789,1.8060617446899414
1732276348220944000,2.89694384765625,-4.769495964050293,-0.540226936340332,1.9411077499389648
1732276348230987800,2.90698779296875,-3.3142924308776855,-0.4847269058227539,0.9572386741638184
1732276348241051000,2.91705078125,-1.6254780292510986,-0.8709592819213867,0.06804585456848145
1732276348251126500,2.92712646484375,-1.0937286615371704,-1.8193540573120117,-0.03180265426635742
1732276348261217500,2.937217529296875,0.45070064067840576,-0.5158376693725586,-0.6480488777160645
1732276348271321600,2.947321533203125,1.926018238067627,-0.4803447723388672,-0.20969033241271973
1732276348281435400,2.957435302734375,1.602138876914978,-0.8323936462402344,0.5588154792785645
1732276348291555800,2.967555908203125,0.228032648563385,-0.6564750671386719,0.33727526664733887
1732276348301635600,2.977635498046875,-0.9554185271263123,-0.2738685607910156,-0.30849146842956543
1732276348311676000,2.987676025390625,-1.9479131698608398,-0.40070438385009766,-0.43166065216064453
1732276348321721000,2.99772119140625,-2.552903890609741,-0.4580221176147461,-0.21273386478424072
1732276348331770600,3.0077705078125,-2.095561981201172,-0.7854290008544922,0.012828588485717773
1732276348341824300,3.01782421875,-1.4825963973999023,-1.6249704360961914,0.46721887588500977
1732276348351842600,3.027842529296875,1.062583088874817,0.0010652542114257812,-0.3094600439071655
1732276348361866800,3.03786669921875,2.9019417762756348,-0.533538818359375,0.10162830352783203
1732276348371896800,3.047896728515625,2.6410300731658936,-1.3949394226074219,0.5695374011993408
1732276348381933300,3.057933349609375,2.224991798400879,-0.8677749633789062,-0.023657917976379395
1732276348391975700,3.0679755859375,2.2064146995544434,-0.5411138534545898,-0.43361616134643555
1732276348402022000,3.07802197265625,2.1066272258758545,-0.4240875244140625,-0.2987011671066284
1732276348412068600,3.088068603515625,2.3143606185913086,-0.4830350875854492,-0.2294090986251831
1732276348422121000,3.098120849609375,2.5013327598571777,-0.8741073608398438,-0.3163483142852783
1732276348432177700,3.108177734375,4.412078857421875,0.528864860534668,-1.4187579154968262
1732276348442238500,3.118238525390625,5.457097053527832,-0.04116249084472656,-0.8835079669952393
1732276348452253000,3.1282529296875,4.521570205688477,-0.788945198059082,0.0005769729614257812
1732276348462273500,3.1382734375,3.9248080253601074,-0.19376182556152344,-0.3900705575942993
1732276348472300500,3.148300537109375,3.630319118499756,-0.11683845520019531,-0.5448523759841919
1732276348482334500,3.15833447265625,3.679457902908325,-0.26975059509277344,-0.7519158124923706
1732276348492375000,3.168375,4.52371883392334,-0.207672119140625,-1.124394178390503
1732276348502422300,3.17842236328125,5.5373382568359375,-0.3050241470336914,-1.2426962852478027
1732276348512470800,3.188470703125,6.281273365020752,-0.40507030487060547,-1.2120287418365479
1732276348522525000,3.19852490234375,6.393321990966797,-0.47937774658203125,-1.0414642095565796
1732276348532584200,3.208584228515625,6.333981513977051,-0.5036821365356445,-0.9773072004318237
1732276348542647300,3.218647216796875,6.482263088226318,-0.539677619934082,-1.037126898765564
1732276348552713500,3.22871337890625,7.046968460083008,-0.6869935989379883,-1.3081378936767578
1732276348562781700,3.23878173828125,8.28763484954834,-0.9164018630981445,-1.6682204008102417
1732276348572850700,3.2488505859375,9.874398231506348,-1.161147117614746,-2.0000669956207275
1732276348582909700,3.25890966796875,11.276839256286621,-1.4118738174438477,-2.299805164337158
1732276348592950800,3.26895068359375,11.966361999511719,-2.002194881439209,-1.9944534301757812
1732276348602992400,3.278992431640625,11.829835891723633,-2.35188627243042,-1.6134659051895142
1732276348612913400,3.288913330078125,11.254110336303711,-2.8325366973876953,-1.2323780059814453
1732276348622844200,3.29884423828125,9.989975929260254,-3.4083619117736816,-0.6111854314804077
1732276348632788700,3.308788818359375,8.59553337097168,-3.8003978729248047,0.20915722846984863
1732276348642749200,3.318749267578125,6.873173713684082,-4.256544589996338,1.2506160736083984
1732276348652729000,3.32872900390625,6.169150352478027,-4.317202091217041,1.7312753200531006
1732276348662725600,3.3387255859375,3.7951607704162598,-3.0931172370910645,2.678588628768921
1732276348672744700,3.34874462890625,-2.389040470123291,-3.0213866233825684,6.797031879425049
1732276348682781200,3.35878125,-35.98406982421875,-9.71744441986084,17.75579261779785
1732276348692839400,3.36883935546875,-66.50700378417969,-6.387580394744873,16.851896286010742
1732276348702913000,3.3789130859375,-55.291534423828125,1.8113622665405273,7.145586013793945
1732276348713005000,3.389005126953125,-23.12415885925293,1.6291847229003906,4.030402183532715
1732276348723107800,3.39910791015625,-5.854546546936035,-3.03228759765625,3.162012815475464
1732276348733223400,3.409223388671875,12.407541275024414,-3.3457369804382324,-0.1792008876800537
1732276348743343400,3.41934326171875,22.628442764282227,-2.5999960899353027,-4.420777320861816
1732276348753469200,3.42946923828125,22.15031623840332,-2.1508994102478027,-6.594738960266113
1732276348763532000,3.439531982421875,15.773618698120117,-1.3441438674926758,-6.2360334396362305
1732276348773598700,3.4495986328125,8.504016876220703,0.6358556747436523,-4.253109931945801
1732276348783668500,3.45966845703125,1.3917691707611084,1.2390460968017578,-0.6055152416229248
1732276348793739800,3.46973974609375,-4.205053329467773,1.23956298828125,2.715167999267578
1732276348803811000,3.47981103515625,-7.765307903289795,0.7317533493041992,4.634336471557617
1732276348813858600,3.489858642578125,-8.885725021362305,0.3465604782104492,4.514230728149414
1732276348823899100,3.499899169921875,-8.027320861816406,0.1919393539428711,3.1308255195617676
1732276348833939700,3.509939697265625,-6.350545406341553,-0.2745380401611328,1.6799170970916748
1732276348843980300,3.519980224609375,-4.623203754425049,-0.7226963043212891,0.768986701965332
1732276348854020900,3.530020751953125,-3.4687857627868652,-0.9246883392333984,0.2090914249420166
1732276348864061700,3.540061767578125,-3.2892403602600098,-1.0934371948242188,-0.1883101463317871
1732276348874102500,3.5501025390625,-3.233738899230957,-1.0560235977172852,-0.4738798141479492
1732276348884143600,3.5601435546875,-2.813001871109009,-0.9881877899169922,-0.7126319408416748
1732276348894184700,3.570184814453125,-1.938941478729248,-0.9222087860107422,-0.6656482219696045
1732276348904226000,3.58022607421875,-0.254907488822937,-0.838313102722168,-0.7041680812835693
1732276348914177300,3.59017724609375,1.6230849027633667,-0.7111053466796875,-0.9020746946334839
1732276348924136200,3.60013623046875,2.54704213142395,-0.5170230865478516,-0.8156478404998779
1732276348934105000,3.61010498046875,2.4839916229248047,-0.3484687805175781,-0.8317066431045532
1732276348944087000,3.620087158203125,2.2687361240386963,-0.11504554748535156,-0.6984573602676392
1732276348954083600,3.63008349609375,1.8542112112045288,0.024560928344726562,-0.21447372436523438
1732276348964096000,3.640095947265625,1.1879326105117798,0.09761619567871094,0.38543081283569336
1732276348974124800,3.650124755859375,0.6480333209037781,0.1459197998046875,0.5751349925994873
1732276348984170000,3.660169921875,0.11251002550125122,0.18380165100097656,0.5469274520874023
1732276348994230300,3.670230224609375,-0.3005203604698181,0.1732645034790039,0.5493285655975342
1732276349004305000,3.680304931640625,0.10981249064207077,0.2389211654663086,0.5583255290985107
1732276349014391600,3.6903916015625,1.1282700300216675,0.218475341796875,0.6503031253814697
1732276349024488200,3.70048828125,2.249786853790283,0.24104690551757812,0.778223991394043
1732276349034591700,3.710591796875,2.845449447631836,0.11019611358642578,0.6465702056884766
1732276349044700200,3.7207001953125,2.4411182403564453,-0.4230318069458008,0.7794513702392578
1732276349054809900,3.730809814453125,3.284170150756836,1.0803184509277344,-1.4862676858901978
1732276349064890600,3.740890625,2.740777015686035,0.7238149642944336,-1.586159348487854
1732276349074931700,3.750931640625,1.5635817050933838,0.030559539794921875,-0.9771745204925537
1732276349084972500,3.76097265625,0.6930950880050659,0.4345121383666992,-0.8002269268035889
1732276349094985200,3.770985107421875,0.2664503753185272,0.6141414642333984,-0.2562248706817627
1732276349104985900,3.78098583984375,-0.18484613299369812,0.5260887145996094,0.5006413459777832
1732276349114985500,3.7909853515625,-0.22462326288223267,0.5666303634643555,0.9633049964904785
1732276349124986600,3.800986572265625,0.4639739692211151,0.562718391418457,0.9345524311065674
1732276349134990600,3.810990478515625,1.203208327293396,0.28582286834716797,0.7654459476470947
1732276349144999000,3.8209990234375,1.130399465560913,-0.1151266098022461,0.9526574611663818
1732276349155012400,3.831012451171875,1.6543185710906982,0.9043588638305664,-0.0948486328125
1732276349165032200,3.8410322265625,2.07442045211792,0.4793987274169922,0.335038423538208
1732276349175059000,3.851058837890625,2.0718772411346436,0.10308170318603516,1.2884652614593506
1732276349185096200,3.86109619140625,1.6661810874938965,0.1506481170654297,1.5080595016479492
1732276349195142000,3.871141845703125,1.0918586254119873,0.12875938415527344,1.3842120170593262
1732276349205194000,3.881194091796875,0.5142644643783569,0.0239410400390625,0.825446367263794
1732276349215252700,3.891252685546875,0.08098825812339783,-0.023647308349609375,0.09053516387939453
1732276349225316000,3.901316162109375,-0.08152258396148682,-0.0896148681640625,-0.25085413455963135
1732276349235383000,3.911383056640625,-0.0029700100421905518,-0.24540138244628906,-0.21008574962615967
1732276349245452500,3.92145263671875,0.29929888248443604,-0.40509605407714844,-0.08773469924926758
1732276349255527700,3.931527587890625,0.47394564747810364,-0.48312854766845703,-0.09686660766601562
1732276349265604600,3.9416044921875,0.3788928985595703,-0.6374530792236328,-0.03579533100128174
1732276349275657500,3.951657470703125,0.0974709689617157,-0.6000423431396484,-0.44434654712677
1732276349285677300,3.96167724609375,0.18725037574768066,-0.1978740692138672,-1.3099485635757446
1732276349295698200,3.9716982421875,0.11452937126159668,-0.5259237289428711,-0.8604913353919983
1732276349305725700,3.9817255859375,0.18268513679504395,-0.918766975402832,-0.9121153950691223
1732276349315759600,3.991759521484375,0.7319537997245789,-0.9225845336914062,-0.8838658928871155
1732276349325800000,4.001800048828125,1.6902559995651245,-0.5491876602172852,-0.8090798258781433
1732276349335845000,4.01184521484375,2.196171522140503,-0.6512413024902344,-0.5728449821472168
1732276349345893000,4.02189306640625,1.8885061740875244,-0.8555049896240234,-0.2734367847442627
1732276349355942000,4.03194189453125,1.3063815832138062,-0.9219980239868164,-0.428314208984375
1732276349365991400,4.041991455078125,0.7493247985839844,-0.96905517578125,-0.5210367441177368
1732276349376041200,4.052041259765625,0.272577166557312,-1.0055923461914062,-0.5001306533813477
1732276349386090000,4.062090087890625,0.4349852204322815,-1.107919692993164,-0.3312488794326782
1732276349396131800,4.0721318359375,1.6409108638763428,-1.2087154388427734,-0.5662106871604919
1732276349406173000,4.0821728515625,3.3751630783081055,-0.7162637710571289,-0.35210299491882324
1732276349416213800,4.0922138671875,4.442728519439697,-0.741978645324707,0.06312704086303711
1732276349426254800,4.1022548828125,4.432276248931885,-0.6874723434448242,0.34686100482940674
1732276349436296000,4.1122958984375,3.444904327392578,-0.4950237274169922,0.6900979280471802
1732276349446341600,4.122341552734375,2.202326536178589,-0.13998889923095703,0.671471118927002
1732276349456379000,4.13237890625,0.7960567474365234,0.07269287109375,0.3605893850326538
1732276349466421000,4.1424208984375,-0.6407186388969421,0.28294944763183594,-0.01185762882232666
1732276349476461600,4.152461669921875,-1.6220381259918213,0.6201772689819336,0.0795130729675293
1732276349486507000,4.162507080078125,-2.4556846618652344,-0.004933357238769531,-0.5961602330207825
1732276349496544000,4.1725439453125,-3.501539707183838,-0.42884063720703125,-0.2701002359390259
1732276349506585900,4.1825859375,-3.8270084857940674,-0.3478832244873047,0.30512964725494385
1732276349516626700,4.192626708984375,-3.657592296600342,-0.45789146423339844,0.5253003835678101
1732276349526667300,4.202667236328125,-3.4245429039001465,-0.5779581069946289,0.4770047664642334
1732276349536708000,4.2127080078125,-3.155407190322876,-0.326416015625,0.48536622524261475
1732276349546753500,4.22275341796875,-2.950313091278076,-0.19722461700439453,0.5035783052444458
1732276349556791800,4.232791748046875,-3.089493751525879,0.033992767333984375,0.04222285747528076
1732276349566835000,4.2428349609375,-3.2185604572296143,0.4630422592163086,-0.7428972125053406
1732276349576882400,4.25288232421875,-3.0442934036254883,0.6033220291137695,-1.0552434921264648
1732276349586934300,4.262934326171875,-2.705843448638916,0.41741943359375,-0.7635812163352966
1732276349596989700,4.27298974609375,-1.9963998794555664,0.3018798828125,-0.32143986225128174
1732276349607048000,4.2830478515625,-1.027008295059204,0.16579437255859375,-0.20359742641448975
1732276349617108500,4.2931083984375,-0.22549688816070557,-0.1615467071533203,-0.13808667659759521
1732276349627170000,4.303170166015625,0.2512625455856323,-0.4400014877319336,0.04234719276428223
1732276349637232000,4.313232177734375,0.37761592864990234,-0.5072145462036133,0.23397064208984375
1732276349647283200,4.323283203125,0.09110069274902344,-0.5314455032348633,0.1947232484817505
1732276349657325000,4.333324951171875,-0.34814727306365967,-0.43189525604248047,0.005563855171203613
1732276349667366000,4.343365966796875,-0.6429318189620972,-0.3619804382324219,-0.15360617637634277
1732276349677406500,4.353406494140625,-0.5899479389190674,-0.24489307403564453,-0.31909704208374023
1732276349687447300,4.363447265625,-0.12079012393951416,-0.16149044036865234,-0.17655229568481445
1732276349697488100,4.373488037109375,0.5976038575172424,-0.07301139831542969,0.06003129482269287
1732276349707529000,4.383529052734375,1.135983943939209,-0.022034645080566406,0.36800312995910645
1732276349717569800,4.39356982421875,1.3258142471313477,0.005641937255859375,0.6499392986297607
1732276349727611000,4.40361083984375,1.1755924224853516,0.057331085205078125,0.8311524391174316
1732276349737652000,4.41365185546875,0.8823493719100952,0.1182107925415039,0.8397462368011475
1732276349747693000,4.423693115234375,0.5332668423652649,0.20714378356933594,0.7131791114807129
1732276349757734400,4.433734375,0.21626245975494385,0.3239421844482422,0.3453843593597412
1732276349767775700,4.443775634765625,0.034401535987854004,0.511627197265625,-0.03069889545440674
1732276349777817300,4.4538173828125,-0.0710916519165039,0.6459455490112305,-0.4216766357421875
1732276349787858700,4.463858642578125,0.03796231746673584,0.7273712158203125,-0.6386472582817078
1732276349797900300,4.473900390625,0.4126477837562561,0.6373615264892578,-0.7226762175559998
1732276349807942000,4.48394189453125,0.757276713848114,0.44858646392822266,-0.3007463216781616
1732276349817983500,4.4939833984375,0.8076420426368713,0.1991138458251953,0.3344055414199829
1732276349828025000,4.504025146484375,0.4092094898223877,0.036423683166503906,0.7031505107879639
1732276349838066700,4.514066650390625,-0.17949950695037842,-0.1885528564453125,0.9072580337524414
1732276349848108300,4.5241083984375,-0.7481386661529541,-0.34710025787353516,0.6454848051071167
1732276349858150000,4.53414990234375,-1.1083424091339111,-0.3388862609863281,0.18385303020477295
1732276349868191200,4.544191162109375,-1.1071618795394897,-0.2740802764892578,-0.14317893981933594
1732276349878232300,4.554232421875,-0.9494807720184326,-0.276763916015625,-0.38453686237335205
1732276349888273700,4.564273681640625,-0.7384796142578125,-0.3415641784667969,-0.41235995292663574
1732276349898314800,4.574314697265625,-0.48746776580810547,-0.3918609619140625,-0.19759881496429443
1732276349908356000,4.584356201171875,-0.19506144523620605,-0.3608560562133789,-0.03083932399749756
1732276349918397400,4.5943974609375,0.16994869709014893,-0.234222412109375,-0.12656617164611816
1732276349928438500,4.6044384765625,0.4627040922641754,-0.19330120086669922,-0.41849982738494873
1732276349938479600,4.614479736328125,0.6562907695770264,-0.24225425720214844,-0.8603237271308899
1732276349948520700,4.624520751953125,0.722784161567688,-0.22751331329345703,-1.387453556060791
1732276349958561800,4.634561767578125,0.7237503528594971,-0.24470233917236328,-1.6856696605682373
1732276349968603000,4.644602783203125,0.6922093033790588,-0.25066566467285156,-1.6654366254806519
1732276349978643700,4.654643798828125,0.460862398147583,-0.27895355224609375,-1.0975364446640015
1732276349988684800,4.664684814453125,0.0039030909538269043,-0.3112201690673828,-0.07465410232543945
1732276349998726100,4.67472607421875,-0.5447834730148315,-0.1480245590209961,0.9580645561218262
1732276350008767200,4.684767333984375,-0.8979870676994324,-0.025182723999023438,1.713497281074524
1732276350018808600,4.69480859375,-1.093599796295166,0.18561935424804688,1.984529733657837
1732276350028850000,4.704849853515625,-1.1104995012283325,0.3361015319824219,1.5936226844787598
1732276350038809900,4.714809814453125,-0.7755576372146606,0.38425540924072266,0.9351035356521606
1732276350048776400,4.7247763671875,-0.16482192277908325,0.2980175018310547,0.2645573616027832
1732276350058752500,4.73475244140625,0.38077157735824585,-0.0024900436401367188,-0.22372031211853027
1732276350068739800,4.74473974609375,0.8439027070999146,-0.33948612213134766,-0.45347630977630615
1732276350078740500,4.754740478515625,1.252881407737732,-0.6937189102172852,-0.4240840673446655
1732276350088755200,4.764755126953125,1.4713152647018433,-1.0653142929077148,-0.2347942590713501
1732276350098784800,4.77478466796875,1.2312058210372925,-1.3015518188476562,-0.26702797412872314
1732276350108829200,4.7848291015625,0.5142937302589417,-1.2403497695922852,-0.512230634689331
1732276350118887400,4.794887451171875,-0.6268312931060791,-0.9640750885009766,-0.7288559675216675
1732276350128958200,4.804958251953125,-1.7490750551223755,-0.5022974014282227,-0.9835304021835327
1732276350139039500,4.81503955078125,-2.4313225746154785,0.015348434448242188,-1.008434772491455
1732276350149129500,4.82512939453125,-2.400123357772827,0.45963478088378906,-0.6809313297271729
1732276350159226400,4.835226318359375,-1.772452712059021,0.7352886199951172,-0.08994698524475098
1732276350169327400,4.845327392578125,-0.8223950862884521,0.6328420639038086,0.5336815118789673
1732276350179430100,4.85543017578125,0.24242141842842102,0.7074184417724609,1.654608964920044
1732276350189511400,4.865511474609375,1.5186337232589722,0.3171215057373047,2.426966905593872
1732276350199552800,4.875552734375,2.1331424713134766,-0.05418872833251953,2.164626359939575
1732276350209593900,4.88559375,2.20161771774292,-0.15254592895507812,1.3471219539642334
1732276350219635200,4.89563525390625,1.8708734512329102,-0.1784982681274414,0.33241546154022217
1732276350229676500,4.905676513671875,1.3283379077911377,0.040691375732421875,-0.6662845611572266
1732276350239717600,4.915717529296875,0.8662040829658508,0.32355499267578125,-1.1151515245437622
1732276350249759000,4.925759033203125,0.6644858121871948,0.5167627334594727,-0.8472021222114563
1732276350259800300,4.93580029296875,0.46484375,0.7440042495727539,-0.4039536714553833
1732276350269841400,4.94584130859375,0.2142975628376007,0.7797622680664062,-0.12027132511138916
1732276350279882800,4.9558828125,0.07439881563186646,0.7339982986450195,0.006439685821533203
1732276350289924000,4.965924072265625,0.18859416246414185,0.5303173065185547,0.23069632053375244
1732276350299965200,4.975965087890625,0.410971075296402,0.2359485626220703,0.4292351007461548
1732276350310006500,4.986006591796875,0.5526096820831299,-0.0007104873657226562,0.540601372718811
1732276350320047600,4.996047607421875,0.5384289622306824,-0.07437705993652344,0.3726736307144165
1732276350330089000,5.0060888671875,0.2960013747215271,-0.09010791778564453,0.02840554714202881
1732276350340130300,5.01613037109375,-0.029103755950927734,-0.023799896240234375,-0.1600327491760254
1732276350350171400,5.02617138671875,-0.30145740509033203,0.09553909301757812,-0.21249830722808838
1732276350360212700,5.036212646484375,-0.4852100610733032,0.2865886688232422,-0.0998150110244751
1732276350370254000,5.046254150390625,-0.5767436027526855,0.3814220428466797,0.18453490734100342
1732276350380295200,5.056295166015625,-0.5476437211036682,0.4230165481567383,0.29255688190460205
1732276350390336500,5.06633642578125,-0.45052629709243774,0.36870861053466797,0.2426396608352661
1732276350400377600,5.076377685546875,-0.3370347023010254,0.5914440155029297,0.7574400901794434
1732276350410419000,5.0864189453125,-0.2626346945762634,0.3967456817626953,1.061572790145874
1732276350420460300,5.096460205078125,-0.32341307401657104,0.25885581970214844,1.0162129402160645
1732276350430501400,5.10650146484375,-0.33437466621398926,0.15890789031982422,0.7866866588592529
1732276350440542700,5.116542724609375,-0.35715895891189575,0.015824317932128906,0.5491708517074585
1732276350450584000,5.126583984375,-0.4831891655921936,-0.017389297485351562,0.3083096742630005
1732276350460625200,5.136625244140625,-0.5414124727249146,-0.13706302642822266,0.02594470977783203
1732276350470666500,5.14666650390625,-0.5038841366767883,-0.2376699447631836,-0.2559216022491455
1732276350480707800,5.156707763671875,-0.3983522653579712,-0.2901878356933594,-0.40498220920562744
1732276350490749000,5.1667490234375,-0.22389495372772217,-0.3137664794921875,-0.2637929916381836
1732276350500790300,5.176790283203125,-0.10864919424057007,-0.3133544921875,-0.037607669830322266
1732276350510831400,5.186831298828125,-0.10943681001663208,-0.29866695404052734,0.08767056465148926
1732276350520872700,5.196872802734375,-0.06850987672805786,-0.2554960250854492,0.1700427532196045
1732276350530914000,5.2069140625,0.07201153039932251,-0.19817352294921875,0.24295127391815186
1732276350540955100,5.216955078125,0.22709590196609497,-0.12180233001708984,0.22964704036712646
1732276350550996500,5.22699658203125,0.3601062595844269,-0.059696197509765625,0.2016463279724121
1732276350561037800,5.237037841796875,0.42891359329223633,-0.016490936279296875,0.1491168737411499
1732276350571079000,5.247078857421875,0.44441357254981995,0.02692890167236328,0.1539614200592041
1732276350581120300,5.257120361328125,0.34935152530670166,0.08477783203125,0.1974550485610962
1732276350591161300,5.267161376953125,0.20044389367103577,0.15222454071044922,0.15979087352752686
1732276350601202700,5.27720263671875,0.10670936107635498,0.1766519546508789,0.16040515899658203
1732276350611244000,5.287244140625,0.010023057460784912,0.22974395751953125,0.11351883411407471
1732276350621285000,5.29728515625,-0.03312557935714722,0.22533702850341797,0.09577226638793945
1732276350631326500,5.307326416015625,-0.04728144407272339,0.2112751007080078,0.19339072704315186
1732276350641367800,5.317367919921875,-0.12838947772979736,0.15872669219970703,0.28740692138671875
1732276350651295000,5.327294921875,-0.22909992933273315,0.1059274673461914,0.2968398332595825
1732276350661226500,5.3372265625,-0.3350510597229004,0.07687854766845703,0.2643646001815796
1732276350671171000,5.347171142578125,-0.4612194299697876,0.014143943786621094,0.19478750228881836
1732276350681128000,5.3571279296875,-0.5276092290878296,-0.005742073059082031,0.1212548017501831
1732276350691104000,5.36710400390625,-0.34812068939208984,-0.016338348388671875,0.09153187274932861
1732276350701097000,5.377096923828125,-0.055976033210754395,0.02069854736328125,0.05747568607330322
1732276350711112700,5.38711279296875,0.20293962955474854,0.01949787139892578,0.01864480972290039
1732276350721151000,5.39715087890625,0.305451899766922,0.013671875,0.02286231517791748
1732276350731211000,5.4072109375,0.3186817765235901,-0.029875755310058594,-0.024910926818847656
1732276350741291300,5.417291259765625,0.2436489462852478,-0.10075664520263672,-0.09597015380859375
1732276350751389400,5.427389404296875,0.07681131362915039,-0.123077392578125,-0.044293999671936035
1732276350761503000,5.4375029296875,-0.16317617893218994,-0.12621688842773438,0.11015534400939941
1732276350771627800,5.447627685546875,-0.36350536346435547,-0.0965127944946289,0.1916137933731079
1732276350781760300,5.45776025390625,-0.4597254991531372,-0.06752395629882812,0.25297343730926514
1732276350791896600,5.467896484375,-0.43522369861602783,-0.011114120483398438,0.40347933769226074
1732276350802031000,5.478031005859375,-0.2015957236289978,0.05797767639160156,0.4589657783508301
1732276350812070100,5.488070068359375,-0.005465865135192871,0.040747642517089844,0.3126260042190552
1732276350822109200,5.498109130859375,0.04189956188201904,0.004858970642089844,0.028153657913208008
1732276350832148500,5.5081484375,0.04656028747558594,-0.020792007446289062,-0.29483091831207275
1732276350842188000,5.51818798828125,-0.01916569471359253,-0.05031013488769531,-0.39292776584625244
1732276350852114700,5.52811474609375,0.014618873596191406,-0.02247142791748047,-0.27920007705688477
1732276350862050800,5.53805078125,0.09431809186935425,-0.060837745666503906,-0.06968307495117188
1732276350872000000,5.548,0.1499181091785431,-0.08427238464355469,0.036904096603393555
1732276350881965800,5.5579658203125,0.05514705181121826,-0.10717010498046875,0.0801767110824585
1732276350891945200,5.5679453125,-0.06096261739730835,-0.11566638946533203,0.26488685607910156
1732276350901945300,5.5779453125,-0.20373833179473877,-0.11031150817871094,0.3072851896286011
1732276350911962000,5.587962158203125,-0.3359113335609436,-0.06294918060302734,0.08165860176086426
1732276350922000600,5.598000732421875,-0.4821849465370178,-0.02585124969482422,-0.09345459938049316
1732276350932060200,5.60806005859375,-0.46885621547698975,0.010599136352539062,-0.03081381320953369
1732276350942139100,5.61813916015625,-0.2791728377342224,0.15459537506103516,0.148942232131958
1732276350952235300,5.6282353515625,-0.023214876651763916,0.16875743865966797,0.17121052742004395
1732276350962345700,5.638345703125,0.120777428150177,0.16384220123291016,0.0662616491317749
1732276350972467000,5.648467041015625,0.254318505525589,0.19230365753173828,-0.09928810596466064
1732276350982595600,5.658595703125,0.4207307696342468,0.14051246643066406,-0.017994165420532227
1732276350992727600,5.6687275390625,0.5217702388763428,0.07565021514892578,0.02422177791595459
1732276351002853600,5.678853515625,0.41273948550224304,0.04984569549560547,-0.07141053676605225
1732276351012895000,5.68889501953125,0.3123297691345215,0.07191944122314453,-0.19965910911560059
1732276351022936300,5.698936279296875,0.3192829191684723,0.07515335083007812,-0.17176389694213867
1732276351032977400,5.708977294921875,0.35203981399536133,-0.015552520751953125,0.08056902885437012
1732276351043018800,5.719018798828125,0.26837849617004395,-0.07656669616699219,0.24480605125427246
1732276351053060000,5.72906005859375,0.07973724603652954,-0.08478355407714844,0.11018896102905273
1732276351063101400,5.739101318359375,-0.19501635432243347,-0.06913471221923828,-0.04659390449523926
1732276351073142500,5.749142578125,-0.25063273310661316,-0.0629730224609375,0.09449660778045654
1732276351083129000,5.759129150390625,-0.15647149085998535,-0.08059120178222656,0.27111637592315674
1732276351093120000,5.7691201171875,-0.06078198552131653,-0.1453409194946289,0.27175772190093994
1732276351103112400,5.779112548828125,0.04607045650482178,-0.19514942169189453,0.1038968563079834
1732276351113112800,5.78911279296875,0.19340038299560547,-0.23001861572265625,0.004882454872131348
1732276351123117800,5.799117919921875,0.3440498113632202,-0.23602008819580078,0.14794564247131348
1732276351133133600,5.809133544921875,0.37652871012687683,-0.20904254913330078,0.20954954624176025
1732276351143155700,5.81915576171875,0.21781596541404724,-0.14483642578125,0.09173798561096191
1732276351153189600,5.829189697265625,-0.09233462810516357,-0.07689857482910156,-0.15146660804748535
1732276351163230200,5.839230224609375,-0.3842879831790924,-0.0051631927490234375,-0.30721795558929443
1732276351173282300,5.8492822265625,-0.4577675461769104,0.032591819763183594,-0.22185635566711426
1732276351183340000,5.859340087890625,-0.3256332576274872,0.008463859558105469,-0.030211210250854492
1732276351193407200,5.8694072265625,-0.16443949937820435,-0.015337944030761719,0.05457663536071777
1732276351203477800,5.879477783203125,0.021648675203323364,0.013036727905273438,0.053211092948913574
1732276351213555200,5.88955517578125,0.2048620879650116,0.0221099853515625,0.051848769187927246
1732276351223637800,5.8996376953125,0.2779308557510376,0.026453018188476562,0.01715981960296631
1732276351233723600,5.9097236328125,0.27620890736579895,0.0262298583984375,0.024722933769226074
1732276351243810800,5.919810791015625,0.20511871576309204,0.02139759063720703,0.1402878761291504
1732276351253885400,5.929885498046875,0.16875049471855164,0.025909423828125,0.2831730842590332
1732276351263888100,5.93988818359375,0.11931729316711426,0.05835247039794922,0.18488478660583496
1732276351273894100,5.94989404296875,0.005233407020568848,0.10435867309570312,-0.010445117950439453
1732276351283904300,5.959904296875,-0.12617751955986023,0.1167459487915039,-0.07134866714477539
1732276351293919700,5.969919677734375,-0.13905417919158936,0.06761932373046875,0.2126847505569458
1732276351303941600,5.979941650390625,-0.07761043310165405,-0.03293895721435547,0.36675572395324707
1732276351313970200,5.98997021484375,-0.008398294448852539,-0.08977794647216797,0.1996450424194336
1732276351324006000,6.000005859375,-0.030041009187698364,-0.11276435852050781,-0.03029048442840576
1732276351334048300,6.01004833984375,-0.037630677223205566,-0.08345413208007812,-0.12976586818695068
1732276351344097500,6.02009765625,-0.022281497716903687,-0.0921792984008789,-0.1154177188873291
1732276351354152700,6.030152587890625,-0.045386433601379395,-0.025322914123535156,-0.0969918966293335
1732276351364213000,6.040212890625,-0.1060096025466919,0.04047203063964844,-0.18283355236053467
1732276351374277600,6.050277587890625,-0.22279015183448792,0.12416362762451172,-0.2823009490966797
1732276351384345300,6.060345458984375,-0.25446534156799316,0.15959930419921875,-0.19333994388580322
1732276351394415000,6.0704150390625,-0.032255977392196655,0.13314151763916016,0.16748857498168945
1732276351404485600,6.080485595703125,0.16306346654891968,0.06907463073730469,0.3641660213470459
1732276351414429200,6.09042919921875,0.30997419357299805,0.03406047821044922,0.2627146244049072
1732276351424381200,6.100381103515625,0.29645588994026184,-0.014590263366699219,0.055529117584228516
1732276351434345000,6.110344970703125,0.2990642189979553,-0.038804054260253906,0.011966109275817871
1732276351444323000,6.120322998046875,0.30350086092948914,-0.029642105102539062,0.10143601894378662
1732276351454317600,6.130317626953125,0.18759991228580475,-0.0017805099487304688,0.0531843900680542
1732276351464329700,6.140329833984375,-0.03840342164039612,0.07274055480957031,-0.1354578733444214
1732276351474359800,6.15035986328125,-0.2710256278514862,0.16510295867919922,-0.3600919246673584
1732276351484407600,6.160407470703125,-0.3515796363353729,0.19974994659423828,-0.31958913803100586
1732276351494472400,6.170472412109375,-0.2494654357433319,0.16323375701904297,0.025552868843078613
1732276351504552200,6.18055224609375,-0.12700843811035156,0.10825061798095703,0.14918553829193115
1732276351514645200,6.190645263671875,-0.05441337823867798,0.07286739349365234,0.021816372871398926
1732276351524748000,6.200748046875,-0.05864599347114563,0.028707504272460938,-0.1697167158126831
1732276351534856200,6.210856201171875,-0.06821474432945251,-0.019227981567382812,-0.2179340124130249
1732276351544965000,6.220965087890625,0.0633154809474945,-0.042677879333496094,-0.03999531269073486
1732276351555003400,6.23100341796875,0.16008266806602478,-0.10361480712890625,0.15967011451721191
1732276351565041400,6.24104150390625,0.20850870013237,-0.1120004653930664,0.12213194370269775
1732276351575080000,6.251079833984375,0.07728368043899536,-0.1673727035522461,-0.1737445592880249
1732276351585118700,6.26111865234375,0.09438562393188477,0.06116199493408203,-0.24027836322784424
1732276351595157800,6.27115771484375,0.08338846266269684,0.0032596588134765625,0.014544486999511719
1732276351605197600,6.281197509765625,0.13318587839603424,-0.030340194702148438,0.23326563835144043
1732276351615241500,6.291241455078125,0.3007882237434387,0.054180145263671875,0.18589484691619873
1732276351625288400,6.301288330078125,0.2555708885192871,-0.013531684875488281,-0.03428816795349121
1732276351635335400,6.31133544921875,0.023008257150650024,-0.042267799377441406,-0.2374800443649292
1732276351645374200,6.321374267578125,0.03394535183906555,-0.0042972564697265625,-0.33052802085876465
1732276351655413000,6.3314130859375,0.0023771822452545166,-0.03268241882324219,-0.22543072700500488
1732276351665452000,6.3414521484375,-0.08093339204788208,-0.05110931396484375,-0.05654478073120117
1732276351675491300,6.3514912109375,-0.18775096535682678,-0.026964187622070312,0.08181107044219971
1732276351685531000,6.36153076171875,-0.3320767283439636,0.0013532638549804688,0.0676499605178833
1732276351695574000,6.371573974609375,-0.4957733154296875,0.04331398010253906,0.03455042839050293
1732276351705620500,6.381620361328125,-0.41070225834846497,0.06570911407470703,0.09583771228790283
1732276351715663000,6.3916630859375,-0.16472354531288147,-0.0018787384033203125,0.13749539852142334
1732276351725704200,6.4017041015625,0.12846240401268005,-0.05911445617675781,0.23143887519836426
1732276351735750100,6.411750244140625,0.25749191641807556,-0.10623550415039062,0.11826157569885254
1732276351745800400,6.421800537109375,0.3290289640426636,-0.08660602569580078,-0.09642136096954346
1732276351755854600,6.4318544921875,0.20339977741241455,-0.05772972106933594,-0.2373659610748291
1732276351765910800,6.441910888671875,0.05658871680498123,-0.019636154174804688,-0.2548919916152954
1732276351775911000,6.451910888671875,0.03967127203941345,0.036919593811035156,-0.12739646434783936
1732276351785913000,6.4619130859375,-0.028747379779815674,0.05019664764404297,-0.040003299713134766
1732276351795918600,6.471918701171875,0.03568236529827118,0.06802558898925781,-0.015604972839355469
1732276351805928400,6.481928466796875,0.17475731670856476,0.09028434753417969,0.10262250900268555
1732276351815944000,6.49194384765625,0.34549346566200256,0.06972503662109375,0.21929681301116943
1732276351825965300,6.50196533203125,0.5021424293518066,0.072906494140625,0.2692016363143921
1732276351835993900,6.511993896484375,0.4427875876426697,0.05235099792480469,0.14488637447357178
1732276351846029300,6.522029296875,0.30721038579940796,0.06508159637451172,0.051229238510131836
1732276351856072000,6.532072021484375,0.14734944701194763,0.06352996826171875,-0.04116225242614746
1732276351866125800,6.542125732421875,0.03307224065065384,0.043234825134277344,-0.042906880378723145
1732276351876185600,6.552185546875,-0.05562883988022804,0.05630970001220703,-0.07790970802307129
1732276351886254800,6.5622548828125,-0.06817485392093658,0.036240577697753906,-0.07023489475250244
1732276351896327400,6.572327392578125,-0.001004580408334732,-0.002361297607421875,-0.010760664939880371
1732276351906406400,6.582406494140625,0.06502339243888855,-0.02625560760498047,-0.06964659690856934
1732276351916485600,6.592485595703125,0.11174202710390091,-0.0025482177734375,-0.1610431671142578
1732276351926568200,6.602568115234375,0.08775432407855988,-0.0026082992553710938,-0.09647893905639648
1732276351936571000,6.61257080078125,0.041110336780548096,-0.0026102066040039062,0.032652974128723145
1732276351946579700,6.622579833984375,-0.03274628520011902,0.0020132064819335938,0.13659131526947021
1732276351956591000,6.632591064453125,-0.12961140275001526,-0.0029554367065429688,0.12624013423919678
1732276351966611000,6.64261083984375,-0.24036462604999542,0.034516334533691406,0.05972921848297119
1732276351976635100,6.65263525390625,-0.205276221036911,0.043082237243652344,0.04143846035003662
1732276351986668500,6.66266845703125,-0.07332619279623032,-0.019225120544433594,0.10385286808013916
1732276351996706800,6.672706787109375,0.06110849976539612,-0.047657012939453125,0.03883981704711914
1732276352006754300,6.68275439453125,0.043322499841451645,-0.033153533935546875,-0.14789319038391113
1732276352016810500,6.692810546875,-0.05855349078774452,0.004843711853027344,-0.24302399158477783
1732276352026874600,6.70287451171875,-0.06958755850791931,0.051802635192871094,-0.139717698097229
1732276352036945200,6.712945068359375,0.02276689186692238,0.017852783203125,0.0751488208770752
1732276352047020800,6.723020751953125,0.1090160682797432,-0.010958671569824219,0.14591622352600098
1732276352057100000,6.73310009765625,0.13836407661437988,0.0030651092529296875,0.05091428756713867
1732276352067181300,6.743181396484375,0.05506578087806702,0.012218475341796875,-0.061760544776916504
1732276352077262800,6.753262939453125,-0.05476302653551102,0.011957168579101562,-0.14521408081054688
1732276352087310000,6.76331005859375,-0.12099022418260574,0.007180213928222656,-0.14360547065734863
1732276352097351400,6.773351318359375,0.025138940662145615,-0.0068912506103515625,0.09794008731842041
1732276352107392500,6.783392578125,0.20728999376296997,-0.006766319274902344,0.22341811656951904
1732276352117433300,6.793433349609375,0.24698057770729065,-0.0020818710327148438,0.11216771602630615
1732276352127474400,6.803474365234375,0.13223806023597717,0.007224082946777344,-0.0630800724029541
1732276352137515300,6.813515380859375,-0.022539865225553513,-0.002292633056640625,-0.1798948049545288
1732276352147556400,6.823556396484375,-0.13759192824363708,-0.0020360946655273438,-0.10744321346282959
1732276352157597400,6.833597412109375,-0.11963078379631042,0.007685661315917969,0.11896562576293945
1732276352167638800,6.843638671875,-0.01785144954919815,-0.0018472671508789062,0.3383287191390991
1732276352177680000,6.853679931640625,0.039423175156116486,0.0072689056396484375,0.27340781688690186
1732276352187721200,6.86372119140625,0.0675969123840332,0.039703369140625,0.012202024459838867
1732276352197762300,6.87376220703125,0.10510602593421936,0.034050941467285156,-0.11826634407043457
1732276352207803600,6.8838037109375,0.14280718564987183,-0.013745307922363281,-0.12969517707824707
1732276352217845200,6.89384521484375,0.10566666722297668,-0.055904388427734375,-0.12280678749084473
1732276352227886600,6.903886474609375,-0.02919316291809082,-0.0831003189086914,-0.11204409599304199
1732276352237928000,6.913927978515625,-0.11042650789022446,-0.057933807373046875,-0.02188289165496826
1732276352247969300,6.92396923828125,-0.1252538412809372,-0.037940025329589844,0.16120755672454834
1732276352258011000,6.934010986328125,-0.08887102454900742,-0.046794891357421875,0.3238341808319092
1732276352268052200,6.94405224609375,-0.07714153826236725,0.01016998291015625,0.2027111053466797
1732276352278093600,6.954093505859375,-0.09451474249362946,0.0661468505859375,-0.015130281448364258
1732276352288135000,6.964135009765625,-0.055432774126529694,0.08367633819580078,-0.1220024824142456
1732276352298176500,6.974176513671875,-0.04550245404243469,0.04455375671386719,-0.05851292610168457
1732276352308217900,6.9842177734375,-0.03131989389657974,0.0014410018920898438,-0.03418457508087158
1732276352318259200,6.99425927734375,0.057957351207733154,-0.007960319519042969,-0.08102452754974365
1732276352328300500,7.004300537109375,0.12251976877450943,-0.04068756103515625,-0.05211198329925537
1732276352338342000,7.014341796875,0.25783705711364746,-0.03046131134033203,0.11294233798980713
1732276352348383000,7.024383056640625,0.22370003163814545,-0.029969215393066406,0.1866447925567627
1732276352358424000,7.034424072265625,-0.03431344032287598,0.012820243835449219,0.07128477096557617
1732276352368465400,7.04446533203125,-0.2557993233203888,0.01729297637939453,-0.04737567901611328
1732276352378506500,7.054506591796875,-0.36245596408843994,0.017038345336914062,-0.1267763376235962
1732276352388427500,7.064427490234375,-0.40398919582366943,-0.025475502014160156,-0.22931921482086182
1732276352398358300,7.074358154296875,-0.22590795159339905,-0.02474689483642578,-0.1049278974533081
1732276352408302600,7.084302490234375,0.06144052743911743,-0.02414417266845703,0.1169353723526001
1732276352418263800,7.094263916015625,0.2319003790616989,-0.03318595886230469,0.15738296508789062
1732276352428244500,7.104244384765625,0.23598971962928772,-0.004496574401855469,0.06123316287994385
1732276352438246400,7.114246337890625,0.1140836700797081,0.033199310302734375,-0.05246400833129883
1732276352448270000,7.12427001953125,-0.0006134882569313049,0.03271961212158203,-0.03316664695739746
1732276352458315500,7.1343154296875,-0.014097392559051514,0.018115997314453125,0.18368542194366455
1732276352468381700,7.144381591796875,-0.06005682796239853,0.027029991149902344,0.31848251819610596
1732276352478466800,7.154466796875,-0.12927398085594177,0.016646385192871094,0.20780301094055176
1732276352488568000,7.164568115234375,-0.12762105464935303,-0.0077953338623046875,-0.004160761833190918
1732276352498682600,7.1746826171875,-0.05591338872909546,-0.012845993041992188,-0.17572438716888428
1732276352508807200,7.18480712890625,0.04310883581638336,-0.055251121520996094,-0.24693989753723145
1732276352518937600,7.1949375,0.08941975980997086,-0.06842803955078125,-0.21948254108428955
1732276352529070600,7.205070556640625,0.046398282051086426,-0.05760955810546875,-0.14190232753753662
1732276352539167000,7.2151669921875,0.032943855971097946,-0.0044803619384765625,-0.023722529411315918
1732276352549208300,7.225208251953125,0.15197968482971191,0.019515037536621094,0.1065359115600586
1732276352559249700,7.235249755859375,0.19950777292251587,0.019529342651367188,0.16415810585021973
1732276352569290800,7.245290771484375,0.17716184258460999,0.05248069763183594,0.1928539276123047
1732276352579332000,7.25533203125,0.07647531479597092,0.07540225982666016,0.19322586059570312
1732276352589373200,7.265373291015625,-0.0597541481256485,0.06020545959472656,0.16092896461486816
1732276352599414500,7.27541455078125,-0.22716794908046722,-0.05852317810058594,0.3419928550720215
1732276352609455900,7.285455810546875,-0.3179759979248047,-0.05308055877685547,0.34265148639678955
1732276352619497000,7.2954970703125,-0.4566000998020172,-0.09041309356689453,0.18935465812683105
1732276352629538300,7.305538330078125,-0.5441926717758179,-0.07535266876220703,-0.02725088596343994
1732276352639579600,7.31557958984375,-0.4785158932209015,-0.06049919128417969,-0.15595924854278564
1732276352649620700,7.325620849609375,-0.2562975585460663,-0.026886940002441406,-0.15173161029815674
1732276352659662000,7.335662109375,0.013304300606250763,-0.0361175537109375,-0.02580440044403076
1732276352669703200,7.345703125,0.1947559416294098,-0.026345252990722656,0.07927811145782471
1732276352679744500,7.35574462890625,0.18194180727005005,0.016267776489257812,0.03185415267944336
1732276352689785900,7.365785888671875,0.0814361721277237,0.03941631317138672,-0.024611949920654297
1732276352699827000,7.375826904296875,-0.11132269352674484,0.04815673828125,-0.028924107551574707
1732276352709868300,7.385868408203125,-0.1556382030248642,0.033222198486328125,0.11268627643585205
1732276352719909600,7.39590966796875,-0.01633128523826599,0.004145622253417969,0.3617384433746338
1732276352729950700,7.40595068359375,0.1686980277299881,-0.034249305725097656,0.3544880151748657
1732276352739992000,7.415991943359375,0.16393119096755981,-0.020305633544921875,0.11261022090911865
1732276352750033400,7.426033447265625,0.07058998197317123,-0.015901565551757812,-0.08344900608062744
1732276352760074500,7.436074462890625,-0.016302138566970825,-0.01612091064453125,-0.18292927742004395
1732276352770115800,7.44611572265625,-0.050192318856716156,-0.05379962921142578,-0.19256865978240967
1732276352780157000,7.456156982421875,-0.017491310834884644,-0.062422752380371094,-0.09461259841918945
1732276352790198300,7.4661982421875,-0.009043164551258087,-0.05675220489501953,0.05814385414123535
1732276352800239600,7.476239501953125,-0.005074560642242432,-0.01357269287109375,0.06281709671020508
1732276352810280700,7.48628076171875,-0.04336985945701599,0.005316734313964844,0.025110840797424316
1732276352820322000,7.496322021484375,-0.043296873569488525,0.023924827575683594,0.06321549415588379
1732276352830363400,7.50636328125,-0.066897913813591,0.023359298706054688,0.0725247859954834
1732276352840404500,7.516404541015625,-0.1375129520893097,0.03220844268798828,0.025240421295166016
1732276352850445800,7.52644580078125,-0.2222866714000702,0.0314788818359375,-0.025974273681640625
1732276352860487200,7.536487060546875,-0.20825377106666565,0.01667022705078125,-0.03895449638366699
1732276352870528300,7.5465283203125,-0.04016994684934616,-0.04495811462402344,0.004504799842834473
1732276352880569600,7.556569580078125,0.05475963279604912,-0.05382251739501953,0.02420651912689209
1732276352890610700,7.566610595703125,0.11584539711475372,-0.062530517578125,-0.00824582576751709
1732276352900532500,7.576532470703125,0.05939708650112152,-0.01919078826904297,-0.031154394149780273
1732276352910463700,7.586463623046875,0.05617254227399826,0.018787384033203125,0.09196615219116211
1732276352920408600,7.59640869140625,0.14777158200740814,-0.009961128234863281,0.28923583030700684
1732276352930370300,7.606370361328125,0.1447511911392212,-0.024370193481445312,0.2351539134979248
1732276352940351500,7.6163515625,0.05283742770552635,-0.0009326934814453125,0.017590641975402832
1732276352950353400,7.626353515625,-0.056286297738552094,0.022235870361328125,-0.1829221248626709
1732276352960377300,7.63637744140625,-0.15967896580696106,0.02168560028076172,-0.2589280605316162
1732276352970422800,7.6464228515625,-0.17303359508514404,0.026078224182128906,-0.1653963327407837
1732276352980489000,7.656489013671875,-0.07892651110887527,0.011651992797851562,-0.012793898582458496
1732276352990573600,7.666573486328125,0.008426409214735031,-0.0025691986083984375,0.09035181999206543
1732276353000669700,7.676669677734375,0.028770193457603455,0.016254425048828125,0.06560301780700684
1732276353010779600,7.686779541015625,-0.06935245543718338,0.011241912841796875,-0.06258392333984375
1732276353020899600,7.696899658203125,0.016809336841106415,0.02056598663330078,-0.024464011192321777
1732276353031026400,7.7070263671875,0.20116561651229858,0.010858535766601562,0.10745799541473389
1732276353041156400,7.71715625,0.21888592839241028,-0.036528587341308594,0.12504398822784424
1732276353051271400,7.727271484375,0.11483288556337357,-0.00785064697265625,0.058152079582214355
1732276353061312800,7.737312744140625,-0.08091581612825394,0.025046348571777344,-0.0734872817993164
1732276353071353900,7.747353759765625,-0.24610666930675507,0.024555206298828125,-0.07184183597564697
1732276353081395200,7.757395263671875,-0.19792699813842773,0.01942920684814453,0.04243302345275879
1732276353091436500,7.7674365234375,-0.06672908365726471,0.004878044128417969,0.07522666454315186
1732276353101477600,7.7774775390625,0.0478210523724556,-0.009499549865722656,-0.019315481185913086
1732276353111519000,7.78751904296875,0.17509576678276062,0.018764495849609375,-0.05103564262390137
1732276353121560300,7.797560302734375,0.2259197235107422,-0.014700889587402344,-0.006745696067810059
1732276353131601400,7.807601318359375,0.22061289846897125,-0.01470184326171875,0.05135047435760498
1732276353141642800,7.817642822265625,0.12683875858783722,0.0040187835693359375,0.04324305057525635
1732276353151684000,7.82768408203125,0.0021111508831381798,0.036510467529296875,-0.025664806365966797
1732276353161663000,7.8376630859375,-0.04068320244550705,0.04968738555908203,-0.11269354820251465
1732276353171647000,7.84764697265625,-0.035702381283044815,0.010928153991699219,-0.052840232849121094
1732276353181638000,7.857637939453125,-0.059208210557699203,0.0011148452758789062,0.010523676872253418
1732276353191637800,7.8676376953125,-0.13028866052627563,-0.008532524108886719,-0.01667642593383789
1732276353201647600,7.877647705078125,-0.07897816598415375,-0.02267742156982422,-0.03901660442352295
1732276353211668500,7.88766845703125,0.07484595477581024,-0.027077674865722656,-0.0049626827239990234
1732276353221700600,7.89770068359375,0.15656524896621704,0.006318092346191406,0.000052928924560546875
1732276353231744000,7.907743896484375,0.13903087377548218,0.07684326171875,0.02854323387145996
1732276353241798100,7.917798095703125,0.0845959484577179,0.13670063018798828,0.06168234348297119
1732276353251861800,7.92786181640625,0.021714936941862106,0.1578197479248047,0.009778141975402832
1732276353261934000,7.93793408203125,-0.04513765126466751,0.1456279754638672,-0.01309812068939209
1732276353272013300,7.948013427734375,-0.08831800520420074,0.11483192443847656,0.011311769485473633
1732276353282097700,7.95809765625,-0.0943472608923912,0.08926582336425781,0.05887138843536377
1732276353292185000,7.96818505859375,-0.05421670526266098,0.06407546997070312,0.07768237590789795
1732276353302273500,7.9782734375,0.02215757966041565,0.015752792358398438,0.07262611389160156
1732276353312344300,7.98834423828125,0.14956969022750854,-0.06002998352050781,0.0959237813949585
1732276353322385700,7.9983857421875,0.23413334786891937,-0.08751201629638672,0.11924290657043457
1732276353332426800,8.0084267578125,0.22034280002117157,-0.10990428924560547,0.04836273193359375
1732276353342468000,8.018468017578124,0.1706364005804062,-0.05655384063720703,-0.0684502124786377
1732276353352509200,8.02850927734375,0.13673235476016998,-0.032309532165527344,-0.12709546089172363
1732276353362550300,8.03855029296875,0.1745918095111847,-0.03668785095214844,-0.14267563819885254
1732276353372591000,8.048591064453126,0.1605120450258255,-0.050332069396972656,-0.17264020442962646
1732276353382632200,8.058632080078125,0.10911539196968079,-0.025941848754882812,-0.1557079553604126
1732276353392673300,8.06867333984375,0.058455802500247955,-0.0018548965454101562,-0.04545235633850098
1732276353402714400,8.07871435546875,-0.0012272708117961884,0.012377738952636719,0.06787991523742676
1732276353412636200,8.08863623046875,-0.08448334783315659,0.01687145233154297,0.09974682331085205
1732276353422567700,8.098567626953125,-0.14413368701934814,0.025922775268554688,0.1080322265625
1732276353432512500,8.108512451171874,-0.1620357185602188,0.03473091125488281,0.14976656436920166
1732276353442474500,8.118474609375,-0.15302428603172302,0.03384208679199219,0.16335701942443848
1732276353452455700,8.12845556640625,-0.10352394729852676,0.04227924346923828,0.163307785987854
1732276353462458000,8.1384580078125,-0.018382687121629715,0.031635284423828125,0.13090181350708008
1732276353472482000,8.14848193359375,0.0835883766412735,-0.007142066955566406,0.0805063247680664
1732276353482527700,8.15852783203125,0.17031192779541016,-0.045289039611816406,0.012213826179504395
1732276353492594000,8.168593994140625,0.19529540836811066,-0.10162830352783203,-0.055037736892700195
1732276353502678800,8.1786787109375,0.1786058098077774,-0.12395191192626953,-0.15476584434509277
1732276353512778200,8.1887783203125,0.17764727771282196,-0.13630104064941406,-0.19744336605072021
1732276353522887700,8.1988876953125,0.16403159499168396,-0.11998367309570312,-0.18884170055389404
1732276353533007400,8.20900732421875,0.0998188778758049,-0.10843658447265625,-0.09693503379821777
1732276353543128800,8.21912890625,0.03681395202875137,-0.07810211181640625,-0.007391214370727539
1732276353553253400,8.22925341796875,0.01694779098033905,-0.07175540924072266,0.08494985103607178
1732276353563255600,8.239255615234375,0.05842452496290207,-0.060787200927734375,0.10029184818267822
1732276353573263600,8.249263671875,0.1418326199054718,-0.09235000610351562,0.1857283115386963
1732276353583274500,8.2592744140625,0.23429900407791138,-0.11873340606689453,0.232344388961792
1732276353593294000,8.269294189453126,0.26063936948776245,-0.14947032928466797,0.14196550846099854
1732276353603317800,8.27931787109375,0.25078529119491577,-0.15607357025146484,0.010173678398132324
1732276353613350400,8.289350341796874,0.16727834939956665,-0.12943077087402344,-0.05921769142150879
1732276353623387600,8.2993876953125,0.025153711438179016,-0.10310554504394531,-0.015210390090942383
1732276353633434600,8.3094345703125,-0.18531116843223572,-0.044132232666015625,0.027454614639282227
1732276353643485700,8.319485595703124,-0.3987541198730469,0.046858787536621094,0.04116261005401611
1732276353653545200,8.329545166015626,-0.5455387830734253,0.10345268249511719,0.0024279356002807617
1732276353663612000,8.33961181640625,-0.5568145513534546,0.12625980377197266,0.0815047025680542
1732276353673684700,8.349684814453125,-0.43422263860702515,0.1487274169921875,0.1968439817428589
1732276353683762200,8.35976220703125,-0.26835930347442627,0.1330432891845703,0.28260767459869385
1732276353693842400,8.369842529296875,-0.054016463458538055,0.07976436614990234,0.34912216663360596
1732276353703923700,8.379923828125,0.15239733457565308,0.036553382873535156,0.31231439113616943
1732276353713994800,8.389994873046875,0.2961883246898651,-0.04379463195800781,0.21578872203826904
1732276353724035300,8.400035400390625,0.35110586881637573,-0.11820125579833984,0.09310877323150635
1732276353734076000,8.410075927734376,0.2904333472251892,-0.1395893096923828,-0.06512510776519775
1732276353744116500,8.420116455078125,0.13912594318389893,-0.11344623565673828,-0.2306532859802246
1732276353754157300,8.4301572265625,-0.05554811656475067,-0.06392669677734375,-0.30072903633117676
1732276353764198100,8.4401982421875,-0.21834369003772736,0.01799488067626953,-0.2627016305923462
1732276353774239000,8.450239013671874,-0.3650197684764862,0.09870243072509766,-0.15544331073760986
1732276353784280000,8.460280029296875,-0.47813141345977783,0.15921783447265625,-0.0027393102645874023
1732276353794321200,8.470321044921874,-0.43704620003700256,0.1997394561767578,0.030578136444091797
1732276353804362500,8.480362548828126,-0.14432507753372192,0.2064218521118164,0.0032232999801635742
1732276353814404000,8.490404052734375,0.11072106659412384,0.1279926300048828,-0.0413893461227417
1732276353824445400,8.500445556640624,0.2918815016746521,0.05543041229248047,-0.01847827434539795
1732276353834487300,8.5104873046875,0.30780723690986633,0.021518707275390625,-0.0652768611907959
1732276353844529000,8.52052880859375,0.15065917372703552,-0.030809402465820312,-0.08702099323272705
1732276353854570800,8.53057080078125,-0.0036224350333213806,-0.016330718994140625,-0.11771678924560547
1732276353864612600,8.540612548828125,-0.052170950919389725,-0.030355453491210938,-0.17616534233093262
1732276353874654500,8.550654541015625,-0.11966557800769806,-0.06298542022705078,-0.12057065963745117
1732276353884696000,8.560696044921874,-0.10684419423341751,-0.02925395965576172,-0.008544206619262695
1732276353894737400,8.5707373046875,-0.12328480184078217,0.0037031173706054688,-0.05732548236846924
1732276353904778500,8.580778564453125,-0.10730725526809692,0.02663707733154297,-0.18977928161621094
1732276353914819800,8.59081982421875,-0.06353560835123062,0.020979881286621094,-0.2308201789855957
1732276353924861000,8.60086083984375,-0.04847993701696396,-0.0034275054931640625,-0.1958010196685791
1732276353934902300,8.61090234375,-0.05218368396162987,-0.032118797302246094,-0.14262914657592773
1732276353944943400,8.620943359375,-0.09345310926437378,-0.06978797912597656,-0.01947760581970215
1732276353954984700,8.630984619140625,-0.14406868815422058,-0.08806991577148438,0.12097609043121338
1732276353964985900,8.64098583984375,-0.16703778505325317,-0.09208106994628906,0.22240805625915527
1732276353974985200,8.650985107421874,-0.17678864300251007,-0.082061767578125,0.18655109405517578
1732276353984985000,8.660985107421874,-0.1828785538673401,-0.05815887451171875,0.09998416900634766
1732276353994986500,8.670986572265624,-0.17560231685638428,-0.025173187255859375,-0.06082117557525635
1732276354004991200,8.6809912109375,-0.1357753574848175,-0.011403083801269531,-0.14458763599395752
1732276354015000800,8.691000732421875,-0.049601681530475616,0.007061004638671875,-0.08685052394866943
1732276354025016000,8.70101611328125,0.06403310596942902,0.0206298828125,-0.01665782928466797
1732276354035038000,8.711037841796875,0.1813696324825287,0.03402137756347656,0.02379608154296875
1732276354045071400,8.7210712890625,0.2602187693119049,0.07075786590576172,0.02579212188720703
1732276354055114200,8.7311142578125,0.28764039278030396,0.10218048095703125,0.04178798198699951
1732276354065164500,8.74116455078125,0.31169238686561584,0.11890029907226562,0.029453396797180176
1732276354075220700,8.751220703125,0.233791321516037,0.13056373596191406,0.0035009384155273438
1732276354085281800,8.76128173828125,0.07799401879310608,0.11382675170898438,-0.0695333480834961
1732276354095346700,8.7713466796875,-0.03739430010318756,0.10691261291503906,-0.10438644886016846
1732276354105414700,8.78141455078125,-0.09941308200359344,0.053112030029296875,-0.002669215202331543
1732276354115484200,8.791484130859375,-0.1089533120393753,-0.01869964599609375,0.09304893016815186
1732276354125554200,8.80155419921875,-0.18501070141792297,-0.056400299072265625,0.04625833034515381
1732276354135625500,8.81162548828125,-0.25670331716537476,-0.0934305191040039,-0.051775455474853516
1732276354145652000,8.82165185546875,-0.27734705805778503,-0.07783985137939453,-0.1633390188217163
1732276354155678700,8.8316787109375,-0.17691871523857117,-0.0669717788696289,-0.10017168521881104
1732276354165706500,8.84170654296875,-0.03192518651485443,-0.05623149871826172,0.051144957542419434
1732276354175740700,8.85174072265625,0.14854465425014496,-0.050533294677734375,0.1396254301071167
1732276354185781000,8.861781005859376,0.17637889087200165,-0.016805648803710938,0.057861328125
1732276354195827200,8.8718271484375,0.07742119580507278,0.030521392822265625,-0.10282981395721436
1732276354205877200,8.881877197265625,0.0036843791604042053,0.039526939392089844,-0.10159754753112793
1732276354215929000,8.89192919921875,0.07219960540533066,-0.0034694671630859375,0.045852065086364746
1732276354225979000,8.901978759765624,0.12086620926856995,-0.060089111328125,0.07901442050933838
1732276354236020500,8.9120205078125,0.12211056798696518,-0.07823371887207031,-0.08059263229370117
1732276354246061600,8.9220615234375,0.06236504763364792,-0.0723867416381836,-0.25249171257019043
1732276354256102700,8.9321025390625,0.0036150887608528137,-0.0334014892578125,-0.19223082065582275
1732276354266143700,8.942143798828125,-0.01669073849916458,-0.027924537658691406,-0.006502270698547363
1732276354276184800,8.952184814453124,-0.060777805745601654,-0.02729511260986328,0.10577523708343506
1732276354286226000,8.962225830078125,-0.07176763564348221,-0.012604713439941406,0.0941087007522583
1732276354296267000,8.97226708984375,-0.04080758988857269,0.01126861572265625,0.05437135696411133
1732276354306312700,8.982312744140625,0.02704932540655136,0.015921592712402344,0.07643640041351318
1732276354316350500,8.9923505859375,0.11310063302516937,0.039338111877441406,0.06986463069915771
1732276354326392800,9.002392822265625,0.1516314297914505,0.06235504150390625,0.05869174003601074
1732276354336433000,9.012432861328126,0.13882705569267273,0.06614971160888672,0.071158766746521
1732276354346477800,9.022477783203126,0.14608953893184662,0.07454872131347656,0.06948471069335938
1732276354356515600,9.032515625,0.07884515821933746,0.07812118530273438,0.015807271003723145
1732276354366558200,9.04255810546875,-0.0008463114500045776,0.07700252532958984,0.019040465354919434
1732276354376598000,9.052597900390625,-0.0700615793466568,0.06650257110595703,0.09277486801147461
1732276354386642700,9.062642578125,-0.09603048861026764,0.042014122009277344,0.13721239566802979
1732276354396680400,9.072680419921875,-0.08905152976512909,0.022617340087890625,0.1387186050415039
1732276354406723000,9.08272314453125,-0.08270205557346344,-0.010602951049804688,0.10261332988739014
1732276354416765400,9.092765380859374,-0.020353160798549652,-0.029166221618652344,0.08616101741790771
1732276354426812200,9.102812255859375,0.06427203863859177,-0.04275798797607422,0.04673731327056885
1732276354436863200,9.11286328125,0.12437602877616882,-0.027878761291503906,0.05047726631164551
1732276354446918000,9.12291796875,0.15116949379444122,-0.036826133728027344,-0.002278566360473633
1732276354456975600,9.1329755859375,0.12146399170160294,0.0015153884887695312,-0.011965274810791016
1732276354467035400,9.143035400390625,0.07810316979885101,-0.007874488830566406,-0.021592378616333008
1732276354477096700,9.1530966796875,0.0683053731918335,-0.0076847076416015625,0.0066318511962890625
1732276354487158500,9.163158447265625,0.063157819211483,-0.002803802490234375,-0.007903814315795898
1732276354497213400,9.17321337890625,0.03441879153251648,-0.0026807785034179688,-0.02239537239074707
1732276354507254500,9.183254638671874,0.0011214464902877808,-0.030823707580566406,0.01988983154296875
1732276354517295400,9.19329541015625,0.005314379930496216,-0.04910087585449219,0.08523321151733398
1732276354527336400,9.20333642578125,0.13663963973522186,-0.04834938049316406,0.08894908428192139
1732276354537377500,9.21337744140625,0.13932959735393524,-0.06187248229980469,0.03678631782531738
1732276354547418600,9.223418701171875,0.07635931670665741,-0.042232513427734375,0.01868724822998047
1732276354557459700,9.233459716796874,-0.008930094540119171,0.028830528259277344,0.024863839149475098
1732276354567500800,9.243500732421875,-0.16402947902679443,0.06100749969482422,-0.0019341707229614258
1732276354577542000,9.2535419921875,-0.19590380787849426,0.07858562469482422,-0.0003205537796020508
1732276354587583200,9.263583251953126,-0.07299526035785675,0.04877471923828125,0.04837620258331299
1732276354597624600,9.27362451171875,0.061622485518455505,0.009992599487304688,0.0541611909866333
1732276354607666000,9.283666015625,0.204258531332016,-0.028219223022460938,0.07909798622131348
1732276354617707300,9.293707275390625,0.2708176374435425,-0.01880359649658203,0.03827786445617676
1732276354627748600,9.30374853515625,0.2389262318611145,-0.023697853088378906,-0.020702123641967773
1732276354637790000,9.3137900390625,0.17109331488609314,0.009198188781738281,0.0011858940124511719
1732276354647831600,9.32383154296875,0.0580679327249527,0.02740192413330078,0.06040072441101074
1732276354657873000,9.333872802734374,-0.04831071197986603,0.03584766387939453,0.05287480354309082
1732276354667914200,9.343914306640626,-0.1250603049993515,0.029992103576660156,0.10220575332641602
1732276354677955600,9.35395556640625,-0.14463135600090027,0.019415855407714844,0.14199864864349365
1732276354687997200,9.3639970703125,-0.14148515462875366,0.008960723876953125,0.06847584247589111
1732276354698038500,9.37403857421875,-0.08732212334871292,-0.05784416198730469,0.01974344253540039
1732276354708079900,9.384079833984375,-0.034608595073223114,-0.019868850708007812,-0.056537628173828125
1732276354718121200,9.394121337890626,-0.11045178025960922,-0.06254005432128906,-0.20733165740966797
1732276354728162300,9.404162353515625,0.026693880558013916,-0.0053081512451171875,-0.27707457542419434
1732276354738083000,9.4140830078125,0.04900721460580826,-0.05243968963623047,-0.1445380449295044
1732276354748013600,9.424013671875,0.09487453103065491,-0.042237281799316406,0.061061859130859375
1732276354757957600,9.43395751953125,0.10764509439468384,0.0006971359252929688,0.1600029468536377
1732276354767918800,9.4439189453125,0.06841640174388885,0.01929187774658203,0.22944235801696777
1732276354777899500,9.4538994140625,0.034484393894672394,0.02803802490234375,0.23719573020935059
1732276354787901400,9.4639013671875,0.0056582167744636536,-0.005893707275390625,0.19381916522979736
1732276354797925000,9.473925048828125,-0.008625097572803497,-0.011075973510742188,0.07629799842834473
1732276354807970600,9.483970458984375,-0.09837377071380615,-0.035030364990234375,-0.053285956382751465
1732276354818036700,9.49403662109375,-0.17324481904506683,-0.05371665954589844,-0.14392495155334473
1732276354828121900,9.504121826171875,-0.20571134984493256,-0.05784130096435547,-0.07349693775177002
1732276354838223400,9.514223388671875,-0.1445082426071167,-0.08072948455810547,0.01930558681488037
1732276354848338000,9.524337890625,-0.04694831371307373,-0.056204795837402344,0.08753275871276855
1732276354858462500,9.53446240234375,0.044273994863033295,-0.03688526153564453,0.1174614429473877
1732276354868593200,9.54459326171875,0.11102650314569473,-0.022687911987304688,0.11444246768951416
1732276354878726100,9.55472607421875,0.14947287738323212,-0.008757591247558594,0.017361760139465332
1732276354888822800,9.56482275390625,0.12281067669391632,0.00024890899658203125,-0.05005645751953125
1732276354898864000,9.574864013671874,0.017926275730133057,0.023308753967285156,-0.09333515167236328
1732276354908905200,9.5849052734375,-0.042024530470371246,0.03660297393798828,-0.11265027523040771
1732276354918946600,9.594946533203125,-0.21428096294403076,0.07328605651855469,-0.11310458183288574
1732276354928988000,9.60498779296875,-0.21504062414169312,0.07640743255615234,-0.024139046669006348
1732276354939029000,9.615029052734375,-0.160298690199852,0.07945728302001953,0.05412864685058594
1732276354949070000,9.625070068359374,-0.05527535825967789,0.0871429443359375,0.14072847366333008
1732276354959111200,9.635111083984375,0.06698234379291534,0.09458255767822266,0.19834387302398682
1732276354969152300,9.64515234375,0.13145440816879272,0.08764171600341797,0.161493182182312
1732276354979193300,9.655193359375,0.12981761991977692,0.09019756317138672,0.059500813484191895
1732276354989234200,9.665234130859375,0.07261782884597778,0.08327865600585938,-0.05963635444641113
1732276354999275300,9.675275146484376,0.002325505018234253,0.04829120635986328,-0.21970057487487793
1732276355009316400,9.68531640625,0.0035470426082611084,-0.014195442199707031,-0.22276151180267334
1732276355019357700,9.695357666015624,0.000021569430828094482,-0.0331268310546875,-0.19351327419281006
1732276355029398800,9.705398681640625,-0.055465951561927795,-0.04690074920654297,-0.1325911283493042
1732276355039440100,9.715440185546875,-0.07285420596599579,-0.055665016174316406,0.0022810697555541992
1732276355049481500,9.7254814453125,-0.05737954378128052,-0.054856300354003906,0.09722340106964111
1732276355059522800,9.735522705078125,-0.05193484574556351,-0.04003620147705078,0.106514573097229
1732276355069564200,9.745564208984375,-0.018663950264453888,-0.020832061767578125,0.04550933837890625
1732276355079605500,9.75560546875,0.022809617221355438,0.012209892272949219,-0.05226719379425049
1732276355089646800,9.765646728515625,0.08718781918287277,-0.002330780029296875,-0.11123430728912354
1732276355099688400,9.7756884765625,0.1274378001689911,-0.0024061203002929688,-0.08503389358520508
1732276355109729800,9.785729736328125,0.10630414634943008,-0.0024538040161132812,-0.012364983558654785
1732276355119771100,9.795771240234375,0.04792136698961258,-0.01665210723876953,0.04035353660583496
1732276355129812500,9.8058125,0.023457691073417664,0.007042884826660156,0.031157970428466797
1732276355139854000,9.81585400390625,0.036972060799598694,-0.021509170532226562,0.060011863708496094
1732276355149895400,9.8258955078125,0.06476692110300064,-0.0496368408203125,0.12166666984558105
1732276355159936800,9.835936767578126,0.01730642467737198,-0.058506011962890625,0.07425010204315186
1732276355169978000,9.84597802734375,-0.09542945772409439,-0.03425025939941406,-0.04303419589996338
1732276355180019500,9.85601953125,-0.1598946899175644,-0.02437877655029297,-0.10275793075561523
1732276355190060800,9.866060791015625,-0.12066130340099335,-0.01925945281982422,0.007383227348327637
1732276355200102000,9.876101806640625,-0.0732216164469719,0.0045623779296875,0.12552595138549805
1732276355210143200,9.886143310546874,0.05802864581346512,0.02321338653564453,0.03954160213470459
1732276355220184300,9.896184326171875,0.18815235793590546,0.041591644287109375,-0.09715831279754639
1732276355230225700,9.9062255859375,0.128788024187088,0.03154182434082031,-0.1996380090713501
1732276355240267000,9.91626708984375,0.05183105170726776,0.021828651428222656,-0.12251532077789307
1732276355250187800,9.926187744140625,0.06641168892383575,-0.020694732666015625,0.13696050643920898
1732276355260118300,9.9361181640625,-0.01765916496515274,-0.03917884826660156,0.3228675127029419
1732276355270062300,9.946062255859376,-0.05825052410364151,0.0036687850952148438,0.22918164730072021
1732276355280023600,9.9560234375,-0.09841570258140564,0.03636741638183594,0.014675021171569824
1732276355290004000,9.96600390625,-0.09189802408218384,0.021569252014160156,-0.07471358776092529
1732276355300006000,9.976005859375,-0.0198630690574646,-0.021178245544433594,-0.007578134536743164
1732276355310029600,9.986029541015625,-0.03371035307645798,-0.034995079040527344,-0.0024993419647216797
1732276355320075000,9.996074951171876,-0.09023403376340866,-0.010919570922851562,-0.03969097137451172
1732276355330141200,10.00614111328125,-0.11826439946889877,-0.0013399124145507812,-0.09530556201934814
1732276355340226000,10.01622607421875,-0.10879272222518921,-0.0012226104736328125,-0.10831403732299805
1732276355350326000,10.026325927734375,-0.10437563806772232,-0.005703926086425781,-0.0558854341506958
1732276355360439300,10.036439208984374,-0.09078817069530487,-0.010087966918945312,0.06621205806732178
1732276355370562600,10.0465625,-0.049370087683200836,-0.014489173889160156,0.1491907835006714
1732276355380692200,10.056692138671876,0.014720216393470764,-0.03307533264160156,0.19392681121826172
1732276355390824400,10.066824462890626,0.02133602648973465,-0.04677104949951172,0.09271001815795898
1732276355400927200,10.07692724609375,-0.005176655948162079,-0.06022167205810547,-0.016344428062438965
1732276355410915000,10.0869150390625,-0.012601025402545929,-0.054534912109375,-0.0486292839050293
1732276355420907300,10.0969072265625,0.0034798383712768555,-0.03945350646972656,-0.03367722034454346
1732276355430905300,10.1069052734375,0.014942258596420288,-0.010462760925292969,-0.028597354888916016
1732276355440910800,10.116910888671875,0.06877759099006653,0.013395309448242188,0.004248499870300293
1732276355450925300,10.12692529296875,0.13164138793945312,0.027443885803222656,0.022301554679870605
1732276355460949000,10.136948974609375,0.14243917167186737,0.031841278076171875,-0.002448439598083496
1732276355470982400,10.146982421875,0.14903266727924347,0.03147697448730469,-0.022278547286987305
1732276355481025500,10.157025634765626,0.1894444227218628,0.03583335876464844,-0.00891721248626709
1732276355491078000,10.167077880859376,0.16937373578548431,0.044806480407714844,-0.005211591720581055
1732276355501138400,10.177138427734375,0.042219072580337524,0.01594257354736328,-0.001662611961364746
1732276355511206100,10.1872060546875,-0.12531715631484985,0.02055644989013672,-0.017120838165283203
1732276355521280000,10.197280029296875,-0.18765169382095337,0.034569740295410156,0.03811848163604736
1732276355531358200,10.207358154296875,-0.10896239429712296,0.010569572448730469,0.2015073299407959
1732276355541439000,10.21743896484375,0.00094623863697052,-0.017963409423828125,0.236441969871521
1732276355551520800,10.227520751953126,0.04331035912036896,-0.03204059600830078,0.08330512046813965
1732276355561587200,10.237587158203125,0.01918700337409973,-0.036446571350097656,-0.09564864635467529
1732276355571628500,10.247628662109374,-0.004422426223754883,-0.026533126831054688,-0.17342102527618408
1732276355581670000,10.257669921875,0.029125690460205078,-0.0308074951171875,-0.09045159816741943
1732276355591711200,10.267711181640625,0.05320665240287781,-0.03033924102783203,-0.0086592435836792
1732276355601752300,10.27775244140625,0.001885935664176941,0.007754325866699219,-0.0174102783203125
1732276355611793700,10.287793701171875,-0.08634117990732193,0.04992198944091797,-0.09195494651794434
1732276355621835000,10.2978349609375,-0.14581194519996643,0.06323051452636719,-0.09992361068725586
1732276355631876400,10.30787646484375,-0.13466107845306396,0.052857398986816406,0.0424727201461792
1732276355641917400,10.31791748046875,-0.0726262554526329,0.056720733642578125,0.1641688346862793
1732276355651958300,10.327958251953126,-0.04009106010198593,0.0415496826171875,0.11506867408752441
1732276355661999400,10.337999267578125,-0.0035221874713897705,0.02190399169921875,-0.027329444885253906
1732276355672040400,10.34804052734375,0.06069689989089966,0.007363319396972656,-0.04528546333312988
1732276355682081500,10.35808154296875,0.14341074228286743,-0.006928443908691406,-0.02064526081085205
1732276355692122600,10.36812255859375,0.1741822361946106,0.011944770812988281,-0.052735328674316406
1732276355702044700,10.378044677734374,0.12568819522857666,0.021093368530273438,-0.12219059467315674
1732276355711976200,10.38797607421875,0.06948375701904297,0.020721435546875,-0.07784664630889893
1732276355721921500,10.397921630859376,0.0006747990846633911,0.015654563903808594,0.022182106971740723
1732276355731883800,10.4078837890625,-0.062318362295627594,0.015287399291992188,0.08347201347351074
1732276355741865500,10.417865478515624,-0.1533496081829071,-0.008683204650878906,0.03580498695373535
1732276355751868200,10.4278681640625,-0.2111523151397705,-0.018118858337402344,-0.02508413791656494
1732276355761887700,10.4378876953125,-0.22238074243068695,-0.022637367248535156,-0.06631326675415039
1732276355771929600,10.4479296875,-0.1924804449081421,-0.03174114227294922,-0.055236220359802246
1732276355781992200,10.4579921875,-0.12187281250953674,-0.02654266357421875,0.02631998062133789
1732276355792074000,10.468073974609375,-0.020177923142910004,-0.01675891876220703,0.08798253536224365
1732276355802173000,10.4781728515625,0.09398840367794037,-0.0024747848510742188,0.10653543472290039
1732276355812285400,10.488285400390625,0.15526963770389557,-0.0025873184204101562,0.06835055351257324
1732276355822408400,10.498408447265625,0.16490978002548218,0.011435508728027344,0.007138967514038086
1732276355832538400,10.508538330078125,0.18008188903331757,-0.0030078887939453125,-0.03452277183532715
1732276355842671000,10.518671142578125,0.1820424646139145,-0.021889686584472656,-0.05224871635437012
1732276355852784000,10.5287841796875,0.17104889452457428,-0.016839981079101562,-0.06548428535461426
1732276355862704600,10.53870458984375,0.10952301323413849,-0.025977134704589844,-0.017562031745910645
1732276355872635000,10.548634765625,0.016838088631629944,-0.039684295654296875,0.02955329418182373
1732276355882578700,10.55857861328125,-0.14048844575881958,-0.04376792907714844,0.02426779270172119
1732276355892539600,10.56853955078125,-0.25902268290519714,-0.028902053833007812,0.014265656471252441
1732276355902520000,10.57852001953125,-0.14186403155326843,0.0046062469482421875,-0.02866947650909424
1732276355912516900,10.588516845703126,-0.05575256794691086,-0.01893329620361328,0.01840817928314209
1732276355922536200,10.5985361328125,0.018898606300354004,-0.009142875671386719,0.10271406173706055
1732276355932577800,10.608577880859375,0.0744701623916626,0.033364295959472656,0.1390383243560791
1732276355942639900,10.618639892578125,-0.0772307738661766,0.05624103546142578,0.09036922454833984
1732276355952721400,10.628721435546876,-0.16574659943580627,0.08347320556640625,0.02827298641204834
1732276355962815700,10.638815673828125,-0.05084598809480667,0.04430866241455078,0.014306068420410156
1732276355972925000,10.648925048828126,0.03886234760284424,-0.04606056213378906,-0.05105757713317871
1732276355983040500,10.65904052734375,0.08972929418087006,-0.07837867736816406,-0.11072695255279541
1732276355993164500,10.66916455078125,0.060146138072013855,-0.06299018859863281,-0.1603914499282837
1732276356003282700,10.67928271484375,0.002414122223854065,-0.043045997619628906,-0.0967782735824585
1732276356013403000,10.68940283203125,-0.012258872389793396,0.004899024963378906,0.031323909759521484
1732276356023365400,10.699365478515626,-0.012758255004882812,0.052043914794921875,0.11962354183197021
1732276356033335800,10.709335693359375,-0.0036785006523132324,0.07005691528320312,0.14100205898284912
1732276356043311900,10.719311767578125,0.01499474048614502,0.031156539916992188,0.12482619285583496
1732276356053300700,10.72930078125,0.0197751522064209,0.0022411346435546875,0.06230795383453369
1732276356063299300,10.73929931640625,0.0010231733322143555,-0.030936241149902344,-0.04136240482330322
1732276356073313500,10.7493134765625,0.0012467056512832642,-0.07293415069580078,-0.10591518878936768
1732276356083344000,10.75934375,-0.008374929428100586,-0.08586597442626953,-0.0851975679397583
1732276356093390300,10.769390380859376,0.033922284841537476,-0.07970619201660156,0.0009303092956542969
1732276356103452000,10.779451904296875,0.06177745759487152,-0.05009937286376953,0.06206858158111572
1732276356113527300,10.78952734375,0.05194038152694702,-0.0021638870239257812,0.12228643894195557
1732276356123614200,10.7996142578125,0.023662224411964417,0.040195465087890625,0.09240031242370605
1732276356133710800,10.8097109375,0.028802111744880676,0.034722328186035156,0.04898548126220703
1732276356143814100,10.819814208984376,0.024418741464614868,0.024643898010253906,-0.022073745727539062
1732276356153921800,10.829921875,-0.012884944677352905,0.010054588317871094,-0.054465413093566895
1732276356164030700,10.84003076171875,-0.11127353459596634,0.03346824645996094,-0.0914381742477417
1732276356174104600,10.8501044921875,-0.02515587955713272,0.014183998107910156,-0.07649409770965576
1732276356184145200,10.860145263671875,-0.08247783035039902,0.009378433227539062,0.07471823692321777
1732276356194185500,10.870185546875,-0.035311050713062286,0.009317398071289062,0.18604040145874023
1732276356204226000,10.88022607421875,-0.04100526124238968,0.009120941162109375,0.2163299322128296
1732276356214267000,10.890266845703126,0.004838034510612488,0.013533592224121094,0.1337653398513794
1732276356224307700,10.9003076171875,0.05485735833644867,-0.015188217163085938,0.010698914527893066
1732276356234348800,10.910348876953124,0.09477880597114563,-0.043387413024902344,-0.11062073707580566
1732276356244390000,10.920389892578125,0.14378176629543304,-0.04274177551269531,-0.15526282787322998
1732276356254431000,10.930430908203125,0.16939400136470795,-0.041996002197265625,-0.15757954120635986
1732276356264472300,10.940472412109376,0.0872766375541687,-0.008207321166992188,-0.09922266006469727
1732276356274513700,10.950513671875,-0.06394872814416885,0.0156402587890625,-0.0609898567199707
1732276356284555300,10.96055517578125,-0.16168643534183502,0.02027606964111328,0.004772543907165527
1732276356294597000,10.97059716796875,-0.11741184443235397,0.024753570556640625,0.1501370668411255
1732276356304638700,10.980638671875,-0.07446927577257156,0.010161399841308594,0.16220474243164062
1732276356314680600,10.9906806640625,-0.027809344232082367,0.02869701385498047,0.07577300071716309
1732276356324722400,11.000722412109376,-0.0008904784917831421,0.04694080352783203,-0.018741488456726074
1732276356334764000,11.010763916015625,-0.0027262121438980103,0.04143810272216797,-0.0982738733291626
1732276356344806000,11.020805908203124,0.03309468924999237,0.04561138153076172,-0.04090237617492676
1732276356354847000,11.030846923828125,0.13924692571163177,0.030854225158691406,0.0862661600112915
1732276356364888300,11.040888427734375,0.1835489422082901,-0.00737762451171875,0.10861563682556152
1732276356374929400,11.050929443359376,0.13895468413829803,0.006809234619140625,-0.04359447956085205
1732276356384970500,11.060970458984375,0.010795176029205322,0.01616954803466797,-0.1846776008605957
1732276356394985700,11.07098583984375,-0.07305211573839188,0.006740570068359375,-0.16458594799041748
1732276356404985900,11.08098583984375,-0.07097149640321732,-0.016592025756835938,0.0007926225662231445
1732276356414985500,11.0909853515625,-0.05491054803133011,-0.02072429656982422,0.05055522918701172
1732276356424986600,11.100986572265626,-0.05343226343393326,-0.0012760162353515625,0.03856003284454346
1732276356434990300,11.110990234375,-0.057170502841472626,0.01787281036376953,0.05021393299102783
1732276356444998400,11.120998291015624,-0.028080761432647705,0.017864227294921875,0.09935188293457031
1732276356455011600,11.131011474609375,-0.013750314712524414,-0.010455131530761719,0.12441587448120117
1732276356465031200,11.14103125,-0.03265220671892166,-0.019521713256835938,0.0646737813949585
1732276356475061000,11.15106103515625,-0.03271912783384323,-0.04729270935058594,0.020163893699645996
1732276356485100800,11.161100830078125,-0.047179050743579865,-0.055733680725097656,-0.00015723705291748047
1732276356495148800,11.171148681640625,-0.061761923134326935,-0.07346630096435547,0.055335044860839844
1732276356505203200,11.181203125,-0.048621051013469696,-0.06268978118896484,0.0537874698638916
1732276356515262500,11.191262451171875,-0.0032312721014022827,-0.0803670883178711,0.019400477409362793
1732276356525326000,11.201326171875,0.031740620732307434,-0.06946372985839844,-0.00980234146118164
1732276356535392800,11.211392822265625,0.05651700496673584,-0.05870532989501953,-0.010460138320922852
1732276356545461800,11.221461669921876,0.07157734036445618,-0.04809284210205078,0.031084895133972168
1732276356555535600,11.23153564453125,0.034569188952445984,-0.04709625244140625,0.034361958503723145
1732276356565611500,11.241611572265626,-0.01158103346824646,-0.027251243591308594,-0.009615063667297363
1732276356575654700,11.251654541015625,-0.005816638469696045,-0.012369155883789062,-0.025004029273986816
1732276356585675800,11.26167578125,0.06543774902820587,-0.00235748291015625,0.03472781181335449
1732276356595697700,11.27169775390625,0.1595565378665924,0.02158069610595703,0.10780477523803711
1732276356605725700,11.2817255859375,0.19651614129543304,0.035648345947265625,0.06681203842163086
1732276356615760600,11.2917607421875,0.19614215195178986,0.049465179443359375,0.03591787815093994
1732276356625801500,11.301801513671874,0.1917930692434311,0.03948402404785156,0.04792296886444092
1732276356635847000,11.311846923828124,0.18354113399982452,0.010777473449707031,0.04579746723175049
1732276356645895000,11.32189501953125,0.09592680633068085,0.015512466430664062,-0.008097648620605469
1732276356655944000,11.33194384765625,0.0003340095281600952,0.0013895034790039062,-0.05208134651184082
1732276356665993500,11.341993408203125,-0.12261966615915298,-0.0029783248901367188,-0.0440288782119751
1732276356676043300,11.352043212890624,-0.1272897720336914,-0.011866569519042969,-0.022491455078125
1732276356686088400,11.36208837890625,0.0750005692243576,0.0029811859130859375,0.01738739013671875
1732276356696130300,11.37213037109375,0.1425236612558365,-0.038994789123535156,0.08978545665740967
1732276356706171600,11.382171630859375,0.15729984641075134,-0.01918506622314453,0.1666569709777832
1732276356716212700,11.392212646484374,0.0932261198759079,0.014187812805175781,0.1351771354675293
1732276356726258400,11.402258544921875,-0.12944409251213074,0.04223060607910156,0.029152870178222656
1732276356736295000,11.412294921875,-0.20827624201774597,0.06992244720458984,-0.00027370452880859375
1732276356746336300,11.422336181640626,-0.12194047123193741,0.045325279235839844,0.008656024932861328
1732276356756377600,11.432377685546875,0.009636417031288147,0.025811195373535156,-0.024666309356689453
1732276356766423800,11.442423828125,0.08740265667438507,0.011296272277832031,-0.09962773323059082
1732276356776460300,11.452460205078125,0.08885824680328369,0.015859603881835938,-0.13093292713165283
1732276356786501600,11.462501708984375,0.08587276935577393,0.029808998107910156,-0.09134089946746826
1732276356796542700,11.472542724609376,0.10214656591415405,0.0576629638671875,-0.033644795417785645
1732276356806588700,11.482588623046874,0.09562160074710846,0.056761741638183594,0.008956432342529297
1732276356816625400,11.49262548828125,0.04757116734981537,0.046372413635253906,0.03710341453552246
1732276356826667000,11.5026669921875,-0.0040344297885894775,0.01722431182861328,0.03229546546936035
1732276356836707800,11.512707763671875,-0.04078605771064758,-0.01620960235595703,0.03268015384674072
1732276356846753500,11.52275341796875,-0.06338867545127869,-0.02556896209716797,-0.02315342426300049
1732276356856790300,11.532790283203125,-0.04857221245765686,-0.048859596252441406,-0.06882119178771973
1732276356866832100,11.54283203125,-0.024852260947227478,-0.048168182373046875,-0.07152342796325684
1732276356876878800,11.55287890625,-0.020713746547698975,-0.028603553771972656,-0.06024754047393799
1732276356886929700,11.5629296875,-0.007457062602043152,-0.004635810852050781,-0.06808686256408691
1732276356896984300,11.572984375,0.04323852062225342,0.037858009338378906,-0.09984540939331055
1732276356907042000,11.5830419921875,0.07475556433200836,0.0703268051147461,-0.08941018581390381
1732276356917102000,11.59310205078125,0.1298961043357849,0.05521678924560547,-0.013736128807067871
1732276356927163600,11.60316357421875,0.18997447192668915,0.040332794189453125,0.08421444892883301
1732276356937225700,11.613225830078125,0.12764689326286316,0.020856857299804688,0.11991417407989502
1732276356947282000,11.623281982421876,0.043147116899490356,0.02515411376953125,0.0991140604019165
1732276356957323300,11.6333232421875,0.021243125200271606,0.03873920440673828,0.07435309886932373
1732276356967364600,11.643364501953124,-0.02408994734287262,0.014380455017089844,0.10203742980957031
1732276356977405700,11.65340576171875,-0.026416286826133728,0.00446319580078125,0.12047779560089111
1732276356987446500,11.663446533203125,-0.06159904599189758,0.008762359619140625,0.06844544410705566
1732276356997487400,11.6734873046875,-0.06829413771629333,0.017681121826171875,-0.006091594696044922
1732276357007528200,11.683528076171875,-0.10334981232881546,0.0029172897338867188,-0.09833359718322754
1732276357017569000,11.693569091796874,-0.09142602980136871,0.0073413848876953125,-0.1659832000732422
1732276357027609900,11.70360986328125,-0.01888403296470642,-0.011738777160644531,-0.12957894802093506
1732276357037651000,11.71365087890625,0.06651699542999268,-0.0257415771484375,-0.06581425666809082
1732276357047692300,11.7236923828125,0.0902138501405716,-0.011250495910644531,-0.04089474678039551
1732276357057733400,11.7337333984375,0.03897765278816223,0.03595924377441406,-0.002259373664855957
1732276357067774700,11.743774658203124,0.021980389952659607,0.06349754333496094,0.05005693435668945
1732276357077816000,11.753816162109375,-0.008525103330612183,0.033939361572265625,0.08326935768127441
1732276357087739100,11.7637392578125,-0.04775334894657135,0.047222137451171875,0.026720762252807617
1732276357097672000,11.773671875,-0.18090051412582397,0.02260112762451172,-0.05243349075317383
1732276357107618000,11.7836181640625,-0.23316772282123566,0.02674102783203125,-0.09289765357971191
1732276357117581000,11.7935810546875,-0.12098906189203262,-0.0068149566650390625,-0.0009943246841430664
1732276357127563000,11.80356298828125,0.03607535362243652,-0.03519153594970703,0.0947103500366211
1732276357137566000,11.81356591796875,0.10653045773506165,-0.03020191192626953,0.029070258140563965
1732276357147590400,11.82359033203125,0.07790675759315491,-0.03470611572265625,-0.09692156314849854
1732276357157636000,11.833635986328124,-0.0018417835235595703,-0.02487468719482422,-0.16040432453155518
1732276357167702300,11.843702392578125,-0.03339657187461853,-0.015051841735839844,-0.10599946975708008
1732276357177786600,11.85378662109375,0.10017691552639008,-0.02422618865966797,0.09822452068328857
1732276357187887400,11.863887451171875,0.1856466680765152,-0.009915351867675781,0.1636795997619629
1732276357198001000,11.8740009765625,0.12510241568088531,0.01815509796142578,0.059107065200805664
1732276357208124200,11.884124267578125,-0.02839440107345581,0.03639698028564453,-0.07240891456604004
1732276357218253300,11.89425341796875,-0.1329900026321411,0.016798973083496094,-0.08009469509124756
1732276357228384500,11.904384521484374,-0.10501363128423691,-0.02124309539794922,0.04392743110656738
1732276357238478600,11.914478515625,-0.07342139631509781,-0.04931449890136719,0.11468088626861572
1732276357248520000,11.92452001953125,-0.07118812948465347,-0.04872322082519531,0.03873848915100098
1732276357258561300,11.934561279296876,-0.07936734706163406,-0.03868675231933594,-0.0454481840133667
1732276357268602400,11.944602294921875,-0.0691508874297142,-0.009881973266601562,-0.04866135120391846
1732276357278643700,11.954643798828124,0.03475429117679596,-0.00034618377685546875,0.01381993293762207
1732276357288684800,11.964684814453125,0.11854943633079529,-0.0004329681396484375,0.04249370098114014
1732276357298725600,11.9747255859375,0.14077112078666687,0.004139900207519531,-0.023319125175476074
1732276357308766700,11.9847666015625,0.11166611313819885,0.0133819580078125,-0.07422745227813721
1732276357318807800,11.994807861328125,0.11658081412315369,0.017848968505859375,-0.049544572830200195
1732276357328849000,12.004848876953124,0.12675222754478455,0.0034198760986328125,0.04988551139831543
1732276357338890000,12.014889892578125,0.11396770179271698,-0.0013914108276367188,0.10074770450592041
1732276357348931000,12.02493115234375,0.059646546840667725,-0.00150299072265625,0.09945130348205566
1732276357358972200,12.03497216796875,-0.012510418891906738,-0.001678466796875,0.03263354301452637
1732276357369013500,12.045013427734375,-0.0650583878159523,0.007594108581542969,-0.06613576412200928
1732276357379054600,12.0550546875,-0.07953428477048874,0.012108802795410156,-0.17800045013427734
1732276357389096000,12.065095947265625,-0.08482933789491653,0.012007713317871094,-0.18067777156829834
1732276357399137300,12.07513720703125,-0.12815305590629578,-0.0020723342895507812,-0.137123703956604
1732276357409178600,12.0851787109375,-0.09189490228891373,-0.011139869689941406,-0.06632757186889648
1732276357419220200,12.09522021484375,0.07063746452331543,-0.020097732543945312,-0.015265703201293945
1732276357429261600,12.105261474609375,0.16075316071510315,-0.03837394714355469,0.03043687343597412
1732276357439303200,12.11530322265625,0.15586146712303162,-0.02820587158203125,0.09967434406280518
1732276357449344800,12.1253447265625,0.0957869440317154,-0.008889198303222656,0.08821070194244385
1732276357459386000,12.13538623046875,-0.0757577046751976,0.01004791259765625,0.039549827575683594
1732276357469427500,12.145427490234376,-0.1888258457183838,0.02873706817626953,-0.01804172992706299
1732276357479468800,12.15546875,-0.16477951407432556,0.004786491394042969,-0.027875542640686035
1732276357489510000,12.165510009765624,-0.05762336403131485,-0.02818584442138672,-0.02802443504333496
1732276357499551200,12.17555126953125,0.047692492604255676,-0.051217079162597656,-0.07508015632629395
1732276357509592600,12.185592529296875,0.06681603193283081,-0.05031394958496094,-0.09779179096221924
1732276357519633700,12.195633544921876,0.06690116226673126,-0.039974212646484375,-0.07792377471923828
1732276357529675000,12.205675048828125,0.07190753519535065,-0.010933876037597656,0.03092670440673828
1732276357539716000,12.215716064453124,0.06321722269058228,0.02700328826904297,0.1475992202758789
1732276357549757400,12.22575732421875,-0.0014988332986831665,0.05476951599121094,0.1970958709716797
1732276357559798800,12.235798828125,-0.055697955191135406,0.0489501953125,0.15718090534210205
1732276357569839900,12.24583984375,-0.08113866299390793,0.0431671142578125,0.08065378665924072
1732276357579881200,12.255881103515625,-0.0974046140909195,-0.0001659393310546875,0.00048100948333740234
1732276357589922600,12.265922607421874,-0.08586936444044113,-0.04268646240234375,-0.06944692134857178
1732276357599963400,12.27596337890625,-0.05148528516292572,-0.07966804504394531,-0.08710789680480957
1732276357610004200,12.286004150390625,0.02429802715778351,-0.08766365051269531,-0.07211291790008545
1732276357620045300,12.29604541015625,0.0661492645740509,-0.0860433578491211,-0.03893482685089111
1732276357630086400,12.30608642578125,0.04658900946378708,-0.046718597412109375,0.0075141191482543945
1732276357640127500,12.31612744140625,0.041671909391880035,-0.02215099334716797,0.10479938983917236
1732276357650168600,12.32616845703125,0.07001993805170059,0.006651878356933594,0.17731916904449463
1732276357660210000,12.3362099609375,0.08900859951972961,0.04901885986328125,0.14550626277923584
1732276357670251000,12.3462509765625,0.056101635098457336,0.07178306579589844,0.06271493434906006
1732276357680292400,12.356292236328125,0.04270204156637192,0.05646228790283203,-0.023313522338867188
1732276357690333700,12.366333740234374,0.08660154044628143,0.03676414489746094,-0.08016598224639893
1732276357700351700,12.376351806640624,0.050291433930397034,0.008077621459960938,-0.037854552268981934
1732276357710371800,12.386371826171874,-0.013539597392082214,-0.020099639892578125,0.045950889587402344
1732276357720394500,12.39639453125,-0.08110826462507248,-0.024247169494628906,0.11421763896942139
1732276357730420500,12.40642041015625,-0.10117858648300171,-0.028413772583007812,0.20080149173736572
1732276357740450300,12.4164501953125,-0.12638893723487854,-0.03737926483154297,0.21160173416137695
1732276357750484200,12.426484130859375,-0.08629649132490158,-0.032233238220214844,0.15740644931793213
1732276357760522200,12.436522216796876,-0.019099444150924683,-0.0413360595703125,-0.008741140365600586
