time,seconds_elapsed,z,y,x
1732621168032689400,0.144689453125,-3.398463726043701,1.4312987327575684,0.21770013868808746
1732621168042718700,0.15471875,-2.795104503631592,1.487464189529419,-0.06916110962629318
1732621168052757000,0.164757080078125,-1.4646048545837402,1.4545283317565918,-0.060434870421886444
1732621168062804200,0.17480419921875,0.11784553527832031,1.293412685394287,0.08855563402175903
1732621168072859600,0.184859619140625,1.185746192932129,1.2426502704620361,0.231145977973938
1732621168082922200,0.194922119140625,1.635197639465332,1.2324495315551758,0.2525624632835388
1732621168092991000,0.204990966796875,1.387786865234375,1.2792048454284668,0.4170640707015991
1732621168103064600,0.215064697265625,0.7197561264038086,1.2783844470977783,0.6235544681549072
1732621168113141500,0.2251416015625,0.35016441345214844,1.1196224689483643,0.7586996555328369
1732621168123220200,0.23522021484375,0.2292919158935547,0.9344263076782227,1.1274402141571045
1732621168133304000,0.245303955078125,0.03410625457763672,0.824350118637085,1.5254619121551514
1732621168143346000,0.255345947265625,-0.13242053985595703,0.7128684520721436,1.6481480598449707
1732621168153392600,0.265392578125,-0.2718973159790039,0.5490496158599854,1.194413423538208
1732621168163430000,0.275429931640625,-0.616511344909668,0.301816463470459,0.43363332748413086
1732621168173472000,0.285471923828125,-1.1666498184204102,0.006766796112060547,-0.09769535064697266
1732621168183513300,0.295513427734375,-1.1777257919311523,-0.09755301475524902,-0.33416712284088135
1732621168193559300,0.305559326171875,-0.8826169967651367,-0.08170366287231445,-0.66037917137146
1732621168203594500,0.315594482421875,-0.5216169357299805,-0.04688072204589844,-1.2101784944534302
1732621168213629700,0.325629638671875,-0.4972686767578125,0.02831435203552246,-1.5958657264709473
1732621168223665700,0.335665771484375,-0.5288572311401367,0.23247170448303223,-1.5658907890319824
1732621168233707000,0.34570703125,-0.813288688659668,0.18257427215576172,-0.9347907304763794
1732621168243753500,0.35575341796875,-1.3387279510498047,-0.004989147186279297,-0.552285373210907
1732621168253804800,0.3658046875,-2.498849391937256,-0.3586432933807373,-1.5237957239151
1732621168263843300,0.37584326171875,-2.4618983268737793,0.1657557487487793,-2.7227015495300293
1732621168273881600,0.385881591796875,5.807994842529297,0.21139812469482422,3.1274735927581787
1732621168283925000,0.395925048828125,2.016571044921875,1.6423230171203613,-0.6778284311294556
1732621168293973200,0.40597314453125,2.1060638427734375,0.8109884262084961,2.65145206451416
1732621168304025600,0.416025634765625,-0.4060945510864258,0.8180937767028809,1.7931402921676636
1732621168314081800,0.426081787109375,-1.4443597793579102,0.6267399787902832,1.0859272480010986
1732621168324140500,0.436140625,-1.8249821662902832,0.7274675369262695,0.22088277339935303
1732621168334199800,0.44619970703125,-1.4423542022705078,0.6793379783630371,-0.1499800682067871
1732621168344260600,0.456260498046875,-0.7252626419067383,0.7483358383178711,-0.5830481052398682
1732621168354321700,0.46632177734375,-0.33937644958496094,1.2964773178100586,-1.6029858589172363
1732621168364377000,0.476377197265625,-0.2856941223144531,0.9507942199707031,-1.317960500717163
1732621168374418000,0.48641796875,-0.17590045928955078,0.5980381965637207,1.3583029508590698
1732621168384459000,0.496458984375,-0.2367229461669922,0.5331697463989258,2.4372715950012207
1732621168394499800,0.506499755859375,-0.013844490051269531,0.5508360862731934,1.4933873414993286
1732621168404540700,0.516540771484375,1.1253461837768555,0.197723388671875,-0.17434287071228027
1732621168414581800,0.526581787109375,6.946441650390625,-0.685417652130127,-1.0907374620437622
1732621168424622800,0.536622802734375,-1.6915640830993652,-0.8095383644104004,-1.1933743953704834
1732621168434546700,0.546546630859375,1.1634464263916016,0.8452749252319336,-3.637543201446533
1732621168444480000,0.55647998046875,-0.5252656936645508,0.8370399475097656,-2.9652771949768066
1732621168454426600,0.566426513671875,-2.642364501953125,-0.6543793678283691,-1.452012300491333
1732621168464385300,0.57638525390625,-1.6239233016967773,-0.1146249771118164,-0.9249074459075928
1732621168474363400,0.58636328125,-0.8388781547546387,0.882392406463623,0.5624315738677979
1732621168484362800,0.59636279296875,2.3790159225463867,-0.29674720764160156,-0.026131272315979004
1732621168494384000,0.606384033203125,2.9698486328125,-3.000901460647583,0.6360920667648315
1732621168504427500,0.616427490234375,1.7784996032714844,-1.6358394622802734,1.095974326133728
1732621168514492200,0.6264921875,-0.10779857635498047,-1.6526622772216797,0.9517854452133179
1732621168524575700,0.63657568359375,0.6228952407836914,-1.1151299476623535,-0.05793499946594238
1732621168534676200,0.64667626953125,0.681330680847168,-0.25659656524658203,-2.2048330307006836
1732621168544790500,0.65679052734375,0.4709892272949219,-0.28735971450805664,-3.6422414779663086
1732621168554915000,0.6669150390625,1.2415552139282227,1.13450288772583,-3.3656797409057617
1732621168565046300,0.67704638671875,1.7511568069458008,1.9773221015930176,-2.7943663597106934
1732621168575180300,0.68718017578125,-0.036528587341308594,1.5606813430786133,0.30619096755981445
1732621168585167000,0.6971669921875,-1.6936826705932617,0.18584775924682617,2.8194308280944824
1732621168595161000,0.7071611328125,-2.4689207077026367,-0.7944912910461426,1.6663681268692017
1732621168605163800,0.717163818359375,-1.8807716369628906,-1.0488057136535645,0.03305387496948242
1732621168615171000,0.727171142578125,-0.19341659545898438,-1.075810432434082,-0.7567079663276672
1732621168625189600,0.737189697265625,1.2303476333618164,-1.3638916015625,-1.0069469213485718
1732621168635219500,0.747219482421875,2.2268552780151367,-1.990720272064209,-0.6879582405090332
1732621168645260800,0.7572607421875,2.291569709777832,-2.628887414932251,-0.9414035677909851
1732621168655313200,0.767313232421875,1.3664159774780273,-2.9861252307891846,-0.05984377861022949
1732621168665371000,0.777370849609375,1.184122085571289,-2.7155256271362305,0.14298391342163086
1732621168675437800,0.787437744140625,1.6564521789550781,-2.1083567142486572,0.296461820602417
1732621168685507800,0.7975078125,1.5297517776489258,-3.0070817470550537,0.41645383834838867
1732621168695584300,0.807584228515625,-0.5615630149841309,-2.8498952388763428,1.1008161306381226
1732621168705665800,0.817665771484375,-0.8423614501953125,-2.1440086364746094,0.18134522438049316
1732621168715750400,0.82775048828125,0.5907564163208008,-2.21761155128479,0.266048789024353
1732621168725836300,0.837836181640625,1.1923933029174805,-2.435513734817505,1.1481518745422363
1732621168735788000,0.8477880859375,-1.3275151252746582,-2.1736502647399902,1.4703948497772217
1732621168745748000,0.857748046875,-3.1365723609924316,-2.6489851474761963,0.42341822385787964
1732621168755719400,0.867719482421875,-3.673205614089966,-2.1741795539855957,0.6246286034584045
1732621168765699300,0.87769921875,-2.992274761199951,-1.1374659538269043,1.7576953172683716
1732621168775693300,0.887693359375,-2.4544715881347656,-0.7200617790222168,1.2041003704071045
1732621168785704200,0.8977041015625,-2.273360252380371,-0.3418436050415039,0.2627575099468231
1732621168795732700,0.907732666015625,-2.998486042022705,0.7400450706481934,-0.6803455948829651
1732621168805778400,0.9177783203125,-4.1842498779296875,5.840453624725342,-7.7346415519714355
1732621168815836200,0.927836181640625,1.6293106079101562,4.484712600708008,-6.459824562072754
1732621168825909200,0.9379091796875,-1.2639718055725098,1.1950817108154297,-3.373075008392334
1732621168835991000,0.947990966796875,-2.47678279876709,-0.6224803924560547,-4.456871032714844
1732621168846084400,0.95808447265625,2.4298901557922363,0.44909191131591797,-2.0211739540100098
1732621168856187000,0.968186767578125,0.014272689819335938,-0.2556633949279785,2.3806681632995605
1732621168866290700,0.978290771484375,3.429990291595459,-1.9615745544433594,0.9372165203094482
1732621168876398300,0.9883984375,3.0268030166625977,-2.223331928253174,-1.1222091913223267
1732621168886506800,0.9985068359375,1.021684169769287,-1.7268881797790527,-0.3073500394821167
1732621168896569600,1.008569580078125,-1.7543096542358398,-0.5669808387756348,0.13490235805511475
1732621168906611000,1.01861083984375,-3.9305739402770996,0.010082721710205078,0.036068081855773926
1732621168916533800,1.02853369140625,-3.99218487739563,0.27295780181884766,0.11984431743621826
1732621168926465800,1.0384658203125,-2.6837961673736572,0.6136183738708496,-0.7331142425537109
1732621168936411400,1.048411376953125,-0.6991848945617676,0.30007028579711914,-1.9089552164077759
1732621168946374000,1.058373779296875,-0.04175758361816406,-0.6192331314086914,-1.4649156332015991
1732621168956355300,1.068355224609375,-1.1662797927856445,-0.2932620048522949,-1.2892144918441772
1732621168966357800,1.078357666015625,-0.3146176338195801,1.879054069519043,0.44499146938323975
1732621168976382000,1.0883818359375,-1.9062166213989258,0.7862067222595215,5.003178596496582
1732621168986427400,1.098427490234375,-2.7190165519714355,-0.638035774230957,5.401598930358887
1732621168996493300,1.108493408203125,-2.2762675285339355,-1.6667423248291016,1.65980863571167
1732621169006577700,1.11857763671875,-0.18367433547973633,-1.5524563789367676,-2.182438373565674
1732621169016678400,1.128678466796875,4.325586318969727,4.099761486053467,-7.2286376953125
1732621169026792000,1.1387919921875,5.938775539398193,5.194669246673584,-3.5076560974121094
1732621169036915500,1.14891552734375,2.7655277252197266,0.4542245864868164,-1.7269998788833618
1732621169047044900,1.159044921875,2.7546768188476562,-0.29688215255737305,-0.38787364959716797
1732621169057176600,1.169176513671875,3.6889257431030273,0.7483243942260742,0.10653108358383179
1732621169067153200,1.179153076171875,2.2774925231933594,-1.298135757446289,-0.4757413864135742
1732621169077137000,1.189136962890625,0.19048023223876953,-0.34116029739379883,0.08283776044845581
1732621169087125200,1.199125244140625,-0.42951202392578125,1.6155295372009277,-0.8650895357131958
1732621169097125000,1.209125,-1.2211275100708008,2.6097421646118164,-4.045790195465088
1732621169107137300,1.21913720703125,-1.312108039855957,1.0402946472167969,-2.9503164291381836
1732621169117163000,1.2291630859375,0.525909423828125,1.0168466567993164,1.951124906539917
1732621169127201800,1.239201904296875,-9.395069122314453,1.7504949569702148,1.237449288368225
1732621169137253600,1.249253662109375,-7.438105583190918,0.17781305313110352,8.586770057678223
1732621169147317200,1.259317138671875,1.8065767288208008,2.621041774749756,3.2756941318511963
1732621169157391400,1.269391357421875,2.525273323059082,3.548072338104248,-1.035706639289856
1732621169167469800,1.2794697265625,1.6854944229125977,2.426537036895752,1.2672010660171509
1732621169177555500,1.289555419921875,2.2926812171936035,3.508700370788574,2.389634370803833
1732621169187646200,1.299646240234375,4.6603684425354,4.032650470733643,0.8466401696205139
1732621169197739800,1.30973974609375,7.755944728851318,3.5008978843688965,-1.1310348510742188
1732621169207834000,1.319834228515625,10.313301086425781,2.874912738800049,-1.8297207355499268
1732621169217775900,1.32977587890625,12.983989715576172,1.5162572860717773,-2.9535679817199707
1732621169227726000,1.33972607421875,14.806205749511719,-0.037641048431396484,-4.154642581939697
1732621169237688600,1.3496884765625,14.82319450378418,-1.9173979759216309,-4.942136764526367
1732621169247665400,1.35966552734375,12.634035110473633,-3.7793827056884766,-5.604895114898682
1732621169257659100,1.3696591796875,9.002032279968262,-5.175494194030762,-5.869939804077148
1732621169267670500,1.37967041015625,4.818077087402344,-5.285417556762695,-4.810825347900391
1732621169277700600,1.38970068359375,0.5628056526184082,-4.571163654327393,-3.540517807006836
1732621169287748600,1.39974853515625,-2.7150726318359375,-3.60042667388916,-3.005190372467041
1732621169297813800,1.409813720703125,-4.37847375869751,-2.749959945678711,-2.310410737991333
1732621169307894500,1.41989453125,-4.299877166748047,-1.4389400482177734,-1.9280420541763306
1732621169317988400,1.42998828125,-3.412052869796753,-1.0236177444458008,-1.206606388092041
1732621169328093000,1.440093017578125,-2.156798839569092,-2.0467185974121094,-1.0083879232406616
1732621169338205200,1.450205078125,-0.5984306931495667,-2.6291098594665527,-1.9846125841140747
1732621169348321800,1.46032177734375,0.021608591079711914,-1.220311164855957,-4.498164176940918
1732621169358440000,1.47043994140625,0.1389058232307434,-1.883376121520996,-5.4001007080078125
1732621169368514600,1.4805146484375,0.1324467658996582,-3.442965507507324,-2.907339572906494
1732621169378555600,1.4905556640625,0.375596284866333,-4.440962314605713,0.14687669277191162
1732621169388477000,1.500476806640625,0.1394340991973877,-4.498743057250977,2.256089687347412
1732621169398407700,1.51040771484375,-0.4143277406692505,-4.346978187561035,1.917290210723877
1732621169408352300,1.520352294921875,-1.236992359161377,-4.604541778564453,0.4243943691253662
1732621169418313700,1.530313720703125,-2.7759923934936523,-4.687982559204102,-1.2559804916381836
1732621169428294700,1.540294677734375,-4.138236999511719,-4.524819374084473,-2.9400110244750977
1732621169438296800,1.550296875,-4.995806694030762,-4.810133934020996,-3.448904037475586
1732621169448320800,1.56032080078125,-5.312383651733398,-4.954503536224365,-2.924114942550659
1732621169458366200,1.5703662109375,-4.249153137207031,-4.8440937995910645,-4.7162089347839355
1732621169468432600,1.5804326171875,-2.7926268577575684,-4.795433044433594,-5.752202987670898
1732621169478517500,1.590517578125,-1.4793140888214111,-4.898887634277344,-6.053999423980713
1732621169488619000,1.600618896484375,-0.8723874092102051,-4.546191692352295,-5.67745304107666
1732621169498733600,1.610733642578125,-1.0324773788452148,-3.987456798553467,-5.0294270515441895
1732621169508858000,1.620858154296875,-1.3587441444396973,-3.7104601860046387,-4.792705059051514
1732621169518988500,1.630988525390625,-1.7825491428375244,-3.363461971282959,-3.9496283531188965
1732621169529121300,1.641121337890625,-1.8524694442749023,-2.8394274711608887,-2.896651268005371
1732621169539218000,1.651218017578125,-1.8837082386016846,-2.16923189163208,-2.9975669384002686
1732621169549259300,1.66125927734375,-1.5361950397491455,-1.4984660148620605,-4.019637584686279
1732621169559300900,1.67130078125,-0.8774890899658203,-0.8465976715087891,-3.7798304557800293
1732621169569342200,1.68134228515625,0.009264945983886719,-0.08791542053222656,-3.00986385345459
1732621169579383600,1.691383544921875,1.2421950101852417,0.7932538986206055,-2.4793434143066406
1732621169589424600,1.701424560546875,2.514728307723999,1.835892677307129,-0.7313740253448486
1732621169599465700,1.7114658203125,3.3475184440612793,2.5354137420654297,1.5491995811462402
1732621169609507000,1.721507080078125,4.331913471221924,2.7365036010742188,2.7242891788482666
1732621169619548200,1.731548095703125,5.719480991363525,2.523921012878418,3.476219415664673
1732621169629589500,1.741589599609375,6.4234538078308105,2.0490331649780273,4.257380485534668
1732621169639630600,1.751630615234375,6.825926780700684,1.5803918838500977,4.139989852905273
1732621169649672000,1.761671875,6.518486976623535,1.218216896057129,3.793609619140625
1732621169659713300,1.77171337890625,5.615004539489746,0.8477983474731445,2.8734450340270996
1732621169669754600,1.781754638671875,4.261229515075684,0.8121156692504883,0.7767477035522461
1732621169679796000,1.7917958984375,2.830869197845459,1.2661209106445312,-1.7869951725006104
1732621169689837300,1.80183740234375,1.5185463428497314,1.802382469177246,-3.7173776626586914
1732621169699879000,1.81187890625,0.6100425720214844,2.529149055480957,-5.13610315322876
1732621169709920500,1.82192041015625,0.5053080320358276,2.905292510986328,-4.826142311096191
1732621169719961900,1.8319619140625,1.1663247346878052,2.88472843170166,-3.236433982849121
1732621169730003500,1.84200341796875,1.5035786628723145,2.9130640029907227,-1.6507549285888672
1732621169740045000,1.852045166015625,1.1986125707626343,2.9126100540161133,-0.03787589073181152
1732621169750086700,1.862086669921875,1.0276474952697754,2.6613855361938477,1.6113296747207642
1732621169760128000,1.8721279296875,1.3903169631958008,2.32501220703125,3.6605868339538574
1732621169770050600,1.882050537109375,2.08561372756958,1.7037343978881836,4.692284107208252
1732621169779982800,1.89198291015625,2.6149463653564453,0.8824224472045898,4.31727409362793
1732621169789928400,1.901928466796875,2.635341167449951,0.19561195373535156,2.5807414054870605
1732621169799890700,1.911890625,1.6458910703659058,-0.21917247772216797,0.4135359525680542
1732621169809872400,1.921872314453125,0.14284157752990723,-0.42968082427978516,-1.4394516944885254
1732621169819875000,1.931875,-1.0439283847808838,-0.6338510513305664,-2.689406394958496
1732621169829894400,1.941894287109375,-2.007822036743164,-0.8915586471557617,-2.962843418121338
1732621169839935500,1.951935546875,-2.433255672454834,-1.3898839950561523,-2.245518207550049
1732621169849993000,1.961992919921875,-2.2720253467559814,-1.5548100471496582,0.2378631830215454
1732621169860070000,1.97206982421875,-2.655578374862671,-1.1532697677612305,3.838831663131714
1732621169870159400,1.982159423828125,-3.808361530303955,-0.9658174514770508,5.91706657409668
1732621169880264000,1.992263916015625,-5.060661315917969,-0.44085693359375,5.820408821105957
1732621169890375700,2.002375732421875,-5.925929069519043,-1.562253475189209,2.8894176483154297
1732621169900496400,2.012496337890625,-6.747955322265625,-3.48056697845459,-0.3032030463218689
1732621169910617300,2.022617431640625,-5.382412433624268,-2.829533576965332,-4.059305667877197
1732621169920671500,2.03267138671875,-0.2805008888244629,0.09765625,-12.237537384033203
1732621169930712300,2.04271240234375,-0.8060188293457031,8.024674415588379,-8.39578914642334
1732621169940758000,2.052758056640625,-8.43980598449707,5.4938859939575195,13.142958641052246
1732621169950794200,2.062794189453125,-9.808830261230469,-3.2661800384521484,26.990161895751953
1732621169960835600,2.072835693359375,-7.432572364807129,-12.072620391845703,26.78497314453125
1732621169970881800,2.0828818359375,-1.3968615531921387,-8.66749095916748,8.847052574157715
1732621169980932000,2.09293212890625,0.7201085090637207,-3.6517152786254883,-6.412447452545166
1732621169990960400,2.10296044921875,0.27365684509277344,-2.341322422027588,-17.16319465637207
1732621170000989000,2.112989013671875,-2.465947151184082,-2.911442279815674,-19.460721969604492
1732621170011023400,2.1230234375,-5.336690425872803,-2.9636387825012207,-17.012798309326172
1732621170021063400,2.1330634765625,-4.141068935394287,-1.9753808975219727,-12.579754829406738
1732621170031109400,2.143109375,-0.44684696197509766,-0.9888725280761719,-5.991208553314209
1732621170041160700,2.15316064453125,2.295534372329712,0.002605438232421875,0.6878785490989685
1732621170051207400,2.16320751953125,4.921395778656006,1.0705718994140625,5.948206901550293
1732621170061259000,2.173259033203125,7.155279636383057,1.3963212966918945,9.005199432373047
1732621170071314700,2.183314697265625,8.39002799987793,1.1861658096313477,8.300246238708496
1732621170081373400,2.19337353515625,8.428637504577637,1.3690242767333984,3.7060561180114746
1732621170091375000,2.203375,7.315354347229004,1.5012454986572266,-0.8234682083129883
1732621170101383000,2.2133828125,5.764980792999268,1.4651641845703125,-3.019545555114746
1732621170111398400,2.2233984375,3.8844330310821533,1.468764305114746,-3.2326242923736572
1732621170121421800,2.233421875,2.41200590133667,1.3970136642456055,-1.6388623714447021
1732621170131453700,2.24345361328125,1.7399792671203613,1.1167888641357422,1.1106503009796143
1732621170141494500,2.25349462890625,1.5902957916259766,0.5724143981933594,3.2798991203308105
1732621170151538400,2.263538330078125,1.974733591079712,0.22057437896728516,4.754992961883545
1732621170161590800,2.2735908203125,2.77276611328125,-0.04334259033203125,5.193001747131348
1732621170171650300,2.283650390625,3.6743454933166504,-0.5042381286621094,4.038211345672607
1732621170181716200,2.29371630859375,4.767125129699707,-0.7613859176635742,2.181589126586914
1732621170191787000,2.303787109375,6.886716842651367,-1.3970699310302734,0.9477007985115051
1732621170201828900,2.313828857421875,10.38388442993164,-1.9846110343933105,-0.3596039414405823
1732621170211873800,2.323873779296875,14.041051864624023,-2.6541309356689453,-1.3719687461853027
1732621170221919500,2.33391943359375,16.63953399658203,-3.7334237098693848,-2.091773748397827
1732621170231953200,2.343953125,18.064189910888672,-4.540500640869141,-1.7545729875564575
1732621170241987000,2.353987060546875,19.475439071655273,-4.5982842445373535,-1.5374600887298584
1732621170252021500,2.364021484375,21.13233757019043,-5.24343204498291,0.9488105177879333
1732621170262057000,2.374056884765625,21.818572998046875,-6.50924015045166,4.822221755981445
1732621170272093200,2.38409326171875,20.845327377319336,-7.853459358215332,8.707348823547363
1732621170282130700,2.394130615234375,18.680086135864258,-9.174241065979004,10.50279426574707
1732621170292174000,2.404174072265625,13.664493560791016,-10.502490043640137,8.739358901977539
1732621170302221000,2.414220947265625,3.683199405670166,-12.562458992004395,4.588829040527344
1732621170312269300,2.424269287109375,-71.7713623046875,-11.255794525146484,0.7392204999923706
1732621170322318000,2.434318115234375,-132.16001892089844,4.162256240844727,-7.4579997062683105
1732621170332366600,2.44436669921875,-23.323104858398438,-2.2761549949645996,-11.407238006591797
1732621170342408000,2.454407958984375,2.734482765197754,-15.182327270507812,2.8049769401550293
1732621170352449300,2.46444921875,8.802213668823242,-4.389158248901367,-3.9294486045837402
1732621170362490600,2.47449072265625,7.211356163024902,-2.982828378677368,-5.655383110046387
1732621170372535600,2.48453564453125,2.601011276245117,-1.87974214553833,-3.539214611053467
1732621170382581800,2.494581787109375,1.9328393936157227,0.38909292221069336,-0.38561832904815674
1732621170392628200,2.504628173828125,-0.15389776229858398,0.6950373649597168,2.947587013244629
1732621170402656300,2.51465625,-3.905581474304199,1.7818713188171387,5.761118412017822
1732621170412689700,2.524689697265625,-7.283868312835693,2.423043727874756,6.498477458953857
1732621170422728400,2.534728515625,-9.41158676147461,2.5662784576416016,5.352634429931641
1732621170432772600,2.544772705078125,-9.300202369689941,2.34017276763916,3.672569990158081
1732621170442821000,2.554821044921875,-7.495748996734619,1.543142318725586,2.773395299911499
1732621170452871700,2.56487158203125,-5.184863567352295,0.8047785758972168,1.786691665649414
1732621170462913800,2.574913818359375,-3.1451172828674316,-0.10314369201660156,1.0858380794525146
1732621170472946200,2.5849462890625,-1.369309902191162,-0.6133685111999512,0.7862724661827087
1732621170482978800,2.594978759765625,-0.6475691795349121,-0.9128117561340332,1.3881245851516724
1732621170493012000,2.605011962890625,-0.47218751907348633,-1.244199275970459,2.3099007606506348
1732621170503046400,2.61504638671875,-0.5364317893981934,-1.2544541358947754,2.9209988117218018
1732621170513086700,2.625086669921875,-1.1036081314086914,-0.8732328414916992,2.5597774982452393
1732621170523128000,2.635128173828125,-1.6509027481079102,-0.6344480514526367,2.043734312057495
1732621170533175300,2.64517529296875,-1.9982237815856934,-0.5668854713439941,1.687561273574829
1732621170543223000,2.65522314453125,-1.8266239166259766,-0.3637237548828125,1.010750412940979
1732621170553275600,2.665275634765625,-1.0067119598388672,-0.11743450164794922,0.4379022419452667
1732621170563318500,2.675318603515625,0.3391227722167969,-0.2237987518310547,0.36408475041389465
1732621170573366000,2.685365966796875,3.2728354930877686,-0.513124942779541,0.9973537921905518
1732621170583402200,2.69540234375,7.4533562660217285,-0.9160656929016113,1.6387706995010376
1732621170593443300,2.705443359375,13.706239700317383,-1.6632962226867676,1.9829590320587158
1732621170603484400,2.715484375,22.086732864379883,-2.303192615509033,2.911468267440796
1732621170613525500,2.725525390625,27.80561065673828,-2.8797898292541504,4.266541004180908
1732621170623566600,2.735566650390625,30.398242950439453,-3.4025397300720215,4.848175525665283
1732621170633612500,2.745612548828125,33.49962615966797,-4.130017280578613,3.8817873001098633
1732621170643649500,2.7556494140625,34.1807861328125,-5.179225921630859,1.242687702178955
1732621170653691600,2.765691650390625,32.37040328979492,-6.673320293426514,-1.8531270027160645
1732621170663732500,2.775732421875,30.931575775146484,-8.007282257080078,-2.7108659744262695
1732621170673778200,2.785778076171875,27.040353775024414,-9.853876113891602,-0.8022464513778687
1732621170683828500,2.795828369140625,19.935813903808594,-11.697426795959473,3.9935765266418457
1732621170693882400,2.80588232421875,12.977316856384277,-12.783246994018555,10.397086143493652
1732621170703939600,2.815939697265625,-0.6889200210571289,-15.199342727661133,14.827722549438477
1732621170713999400,2.825999267578125,-131.1064910888672,-8.813998222351074,2.19765305519104
1732621170724061000,2.83606103515625,-8.885944366455078,0.12746858596801758,-18.76350975036621
1732621170734123000,2.846123046875,23.601499557495117,-16.950244903564453,-3.2434239387512207
1732621170744183800,2.856183837890625,15.494726181030273,-13.198577880859375,-1.213876724243164
1732621170754225200,2.86622509765625,8.564337730407715,-1.9468412399291992,-12.236717224121094
1732621170764266500,2.8762666015625,2.3080477714538574,-2.0569796562194824,-11.512235641479492
1732621170774307800,2.886307861328125,-4.9827799797058105,0.08257532119750977,-4.974101543426514
1732621170784230000,2.89622998046875,-12.422517776489258,2.579524040222168,-0.804611325263977
1732621170794161400,2.906161376953125,-16.719255447387695,3.034623622894287,4.14042854309082
1732621170804106500,2.9161064453125,-18.312149047851562,4.501771450042725,7.438361167907715
1732621170814068500,2.926068359375,-17.89118003845215,4.0054240226745605,7.897053241729736
1732621170824045000,2.936045166015625,-15.949752807617188,2.8725175857543945,6.749180793762207
1732621170834043100,2.946043212890625,-11.762840270996094,1.5234465599060059,5.176000118255615
1732621170844063200,2.956063232421875,-7.666046619415283,-0.4113883972167969,3.432955026626587
1732621170854105600,2.966105712890625,-4.6898088455200195,-1.695603370666504,1.2412817478179932
1732621170864169200,2.976169189453125,-2.65787935256958,-1.9742870330810547,-0.5696301460266113
1732621170874252500,2.98625244140625,-1.6962318420410156,-2.0017428398132324,-1.2495037317276
1732621170884348000,2.996347900390625,-1.819993019104004,-2.1000123023986816,-0.9044515490531921
1732621170894457900,3.006457763671875,-2.4386987686157227,-2.0879054069519043,-0.5578687191009521
1732621170904578800,3.016578857421875,-2.855048656463623,-2.0233397483825684,0.4700770676136017
1732621170914707200,3.026707275390625,-2.711545467376709,-2.057079315185547,1.0236308574676514
1732621170924839400,3.03683935546875,-1.6806321144104004,-2.1389575004577637,1.1871750354766846
1732621170934969900,3.046969970703125,0.020990371704101562,-2.413748264312744,1.4573578834533691
1732621170945012700,3.0570126953125,2.618380308151245,-2.9450464248657227,1.0192437171936035
1732621170955052500,3.067052490234375,5.856374263763428,-3.4738965034484863,0.69392991065979
1732621170965092600,3.077092529296875,11.125751495361328,-4.256340503692627,0.5712997913360596
1732621170975016200,3.08701611328125,19.678707122802734,-5.529330253601074,-0.4167872667312622
1732621170984949200,3.09694921875,29.235538482666016,-6.668115615844727,-2.2315375804901123
1732621170994896000,3.106895751953125,37.522186279296875,-7.225556373596191,-4.38899564743042
1732621171004859100,3.116859130859375,42.927146911621094,-8.063958168029785,-5.306946754455566
1732621171014841600,3.126841552734375,44.704437255859375,-9.374281883239746,-3.9833104610443115
1732621171024844500,3.136844482421875,43.195213317871094,-11.192720413208008,-2.257725477218628
1732621171034869200,3.146869140625,39.23820114135742,-13.278276443481445,0.42639556527137756
1732621171044915000,3.1569150390625,33.905113220214844,-15.093369483947754,5.562495231628418
1732621171054980900,3.16698095703125,27.99277114868164,-15.429794311523438,12.527351379394531
1732621171065065200,3.177065185546875,22.516521453857422,-15.598682403564453,16.797161102294922
1732621171075165700,3.187165771484375,18.819305419921875,-19.88308334350586,21.87614631652832
1732621171085274400,3.1972744140625,-86.79314422607422,-10.16176986694336,30.45130157470703
1732621171095392800,3.207392822265625,-85.19113159179688,16.790271759033203,-9.410558700561523
1732621171105517800,3.217517822265625,13.350215911865234,-14.505247116088867,-9.466432571411133
1732621171115645700,3.227645751953125,15.771472930908203,-5.653740882873535,-3.097351551055908
1732621171125635800,3.2376357421875,13.278640747070312,4.5529303550720215,-5.475177764892578
1732621171135633200,3.247633056640625,4.12718391418457,1.0736279487609863,0.33370906114578247
1732621171145638400,3.257638427734375,-6.439782619476318,4.834569454193115,4.402359962463379
1732621171155653400,3.2676533203125,-11.708690643310547,4.885712623596191,3.9853968620300293
1732621171165678300,3.27767822265625,-4.952908992767334,2.6707863807678223,0.814350962638855
1732621171175713500,3.287713623046875,-0.274874210357666,-1.2006044387817383,-1.6479690074920654
1732621171185759200,3.29775927734375,1.625871181488037,-2.9169747829437256,-5.101428985595703
1732621171195814400,3.307814453125,1.3055815696716309,-2.8048617839813232,-4.897308349609375
1732621171205878300,3.317878173828125,-1.711745262145996,-0.8041362762451172,-1.3616948127746582
1732621171215949800,3.32794970703125,-3.039294719696045,0.6276326179504395,0.37085700035095215
1732621171226026800,3.33802685546875,-2.3242602348327637,1.226999282836914,0.612972617149353
1732621171236108000,3.34810791015625,-1.8950233459472656,1.2178707122802734,0.195595383644104
1732621171246191900,3.35819189453125,-1.9452872276306152,0.6664524078369141,-0.4009029269218445
1732621171256276500,3.3682763671875,-1.9902081489562988,0.1266617774963379,-0.24959427118301392
1732621171266336000,3.3783359375,-1.9028091430664062,-0.35427045822143555,-0.009513497352600098
1732621171276377000,3.388377197265625,-1.4855952262878418,-0.6489601135253906,-0.28542715311050415
1732621171286418200,3.398418212890625,-0.6790609359741211,-0.5340213775634766,-0.5853233337402344
1732621171296459300,3.408459228515625,0.01797771453857422,-0.36594676971435547,-0.3779802918434143
1732621171306500600,3.41850048828125,0.664820671081543,-0.049349308013916016,-0.252335786819458
1732621171316541700,3.428541748046875,1.0335397720336914,0.19038867950439453,-0.22814661264419556
1732621171326582800,3.438582763671875,1.072493553161621,0.1374979019165039,-0.05641663074493408
1732621171336505300,3.44850537109375,0.7638754844665527,0.33236026763916016,-0.40920448303222656
1732621171346437400,3.458437255859375,0.715700626373291,0.8425002098083496,-0.7664589285850525
1732621171356383000,3.468383056640625,0.1909961700439453,0.5539536476135254,0.014941215515136719
1732621171366345500,3.478345458984375,-0.33870601654052734,0.5560593605041504,0.16631054878234863
1732621171376327400,3.488327392578125,-0.5323476791381836,0.6496796607971191,0.03212141990661621
1732621171386330000,3.498330078125,-0.1423940658569336,0.6536769866943359,-0.045740723609924316
1732621171396354300,3.508354248046875,0.5626769065856934,0.705848217010498,0.3790395259857178
1732621171406400000,3.51839990234375,0.8764538764953613,0.7955975532531738,0.9805095195770264
1732621171416466400,3.528466552734375,0.5630478858947754,0.7330875396728516,1.1916677951812744
1732621171426551000,3.538551025390625,-0.5137367248535156,0.7542510032653809,0.8589240312576294
1732621171436652000,3.548652099609375,-2.0500283241271973,0.775726318359375,0.17735934257507324
1732621171446766000,3.55876611328125,-3.1702322959899902,0.7573275566101074,-0.19989430904388428
1732621171456889600,3.5688896484375,-3.5134053230285645,0.6555752754211426,-0.07940506935119629
1732621171467019300,3.579019287109375,-2.4737119674682617,0.5426316261291504,-0.03141427040100098
1732621171477151200,3.589151123046875,-0.8778953552246094,0.3300924301147461,0.025648117065429688
1732621171487246300,3.599246337890625,0.22855186462402344,0.09591865539550781,-0.27207493782043457
1732621171497287700,3.60928759765625,1.07059907913208,0.07309627532958984,-0.7897189855575562
1732621171507329000,3.6193291015625,1.297926902770996,-0.042115211486816406,-0.5534039735794067
1732621171517370400,3.629370361328125,0.7337784767150879,-0.1795644760131836,-0.1136096715927124
1732621171527411700,3.63941162109375,-0.012080669403076172,-0.1756148338317871,0.06996631622314453
1732621171537453300,3.649453369140625,-0.7757682800292969,-0.19653654098510742,0.19750702381134033
1732621171547494700,3.65949462890625,-1.5127735137939453,-0.2975029945373535,-0.06824886798858643
1732621171557536000,3.669535888671875,-1.9731135368347168,-0.23247909545898438,-0.6287831664085388
1732621171567577300,3.679577392578125,-2.0876379013061523,-0.11305952072143555,-0.9320291876792908
1732621171577618700,3.68961865234375,-1.8378534317016602,-0.09664011001586914,-0.945857584476471
1732621171587660000,3.699659912109375,-1.135920524597168,-0.023518085479736328,-0.5265581011772156
1732621171597701400,3.709701416015625,-0.3508424758911133,0.048295021057128906,-0.2502574324607849
1732621171607742700,3.71974267578125,0.11444234848022461,0.3131413459777832,-0.31200480461120605
1732621171617784000,3.7297841796875,0.11934280395507812,0.46662092208862305,-0.10958254337310791
1732621171627825400,3.739825439453125,-0.12943363189697266,0.5424633026123047,-0.016444802284240723
1732621171637866800,3.74986669921875,-0.43651771545410156,0.683384895324707,-0.12499427795410156
1732621171647908400,3.759908447265625,-0.6930375099182129,0.6777925491333008,-0.06652402877807617
1732621171657949700,3.76994970703125,-0.8138689994812012,0.6587367057800293,0.12733709812164307
1732621171667991000,3.779990966796875,-0.8572206497192383,0.7116904258728027,0.0935293436050415
1732621171678032400,3.790032470703125,-1.0437655448913574,0.6591157913208008,-0.11049270629882812
1732621171688073500,3.800073486328125,-1.2210822105407715,0.562711238861084,-0.2699775695800781
1732621171698114300,3.8101142578125,-1.29378080368042,0.5325765609741211,-0.5248531103134155
1732621171708155400,3.8201552734375,-1.1473264694213867,0.4495244026184082,-0.4561050534248352
1732621171718196200,3.8301962890625,-0.8045978546142578,0.4440798759460449,-0.04456830024719238
1732621171728237600,3.840237548828125,-0.6330022811889648,0.45938539505004883,0.13240742683410645
1732621171738161400,3.850161376953125,-0.5989923477172852,0.43755626678466797,0.15748870372772217
1732621171748095000,3.860094970703125,-0.712674617767334,0.36362218856811523,0.06849753856658936
1732621171758041900,3.870041748046875,-0.7305793762207031,0.24672889709472656,0.027933955192565918
1732621171768005400,3.88000537109375,-0.6193575859069824,0.24477291107177734,0.04550468921661377
1732621171777986000,3.889986083984375,-0.5126500129699707,0.0521235466003418,0.044545531272888184
1732621171787987500,3.899987548828125,-0.4292769432067871,-0.005286693572998047,-0.36319851875305176
1732621171798005800,3.910005859375,-0.38822412490844727,0.07241487503051758,-0.48464512825012207
1732621171808045800,3.9200458984375,-0.4757065773010254,0.07409286499023438,-0.13769638538360596
1732621171818107000,3.93010693359375,-0.5919604301452637,0.1039886474609375,-0.0010683536529541016
1732621171828187400,3.9401875,-0.6511893272399902,0.12354660034179688,0.0880509614944458
1732621171838285000,3.95028515625,-0.6681919097900391,0.12291193008422852,0.1011817455291748
1732621171848397000,3.96039697265625,-0.6719560623168945,0.12136220932006836,-0.09707832336425781
1732621171858519600,3.97051953125,-0.6727347373962402,0.2951536178588867,-0.05755126476287842
1732621171868649000,3.98064892578125,-0.6176228523254395,0.032301902770996094,-0.061684489250183105
1732621171878781700,3.99078173828125,-0.5916800498962402,-0.06755352020263672,-0.19116127490997314
1732621171888902700,4.000902587890625,-0.6418495178222656,0.05324602127075195,-0.4836968779563904
1732621171898943200,4.010943115234375,-0.854766845703125,0.12105655670166016,-0.3516889214515686
1732621171908983800,4.02098388671875,-0.9208707809448242,0.2060413360595703,-0.1296309232711792
1732621171919024600,4.031024658203125,-0.7686367034912109,0.3083319664001465,-0.08994042873382568
1732621171929065200,4.041065185546875,-0.4732670783996582,0.3291964530944824,0.02181267738342285
1732621171939106000,4.05110595703125,-0.3149127960205078,0.3329930305480957,-0.03288257122039795
1732621171949147100,4.061147216796875,-0.3694453239440918,0.3008537292480469,0.02855682373046875
1732621171959188000,4.07118798828125,-0.5559029579162598,0.2511162757873535,-0.01363980770111084
1732621171969229300,4.081229248046875,-0.7893199920654297,0.2448282241821289,-0.06500482559204102
1732621171979270700,4.091270751953125,-0.9513134956359863,0.2187037467956543,-0.08810687065124512
1732621171989312000,4.10131201171875,-1.0091733932495117,0.1866164207458496,-0.025945305824279785
1732621171999353300,4.111353271484375,-1.0108489990234375,0.3206338882446289,-0.3418195843696594
1732621172009395000,4.12139501953125,-0.9753551483154297,0.29157018661499023,-0.4870608448982239
1732621172019436800,4.131436767578125,-0.8318519592285156,0.2442941665649414,-0.3372507691383362
1732621172029478700,4.141478759765625,-0.6660947799682617,0.22243785858154297,-0.18986809253692627
1732621172039520300,4.151520263671875,-0.4774003028869629,0.22184133529663086,-0.05852365493774414
1732621172049562400,4.161562255859375,-0.41576194763183594,0.20541143417358398,0.06293058395385742
1732621172059604200,4.171604248046875,-0.6305789947509766,0.1490631103515625,0.09485316276550293
1732621172069646000,4.18164599609375,-0.8410520553588867,0.05662679672241211,0.08468616008758545
1732621172079688000,4.19168798828125,-0.9971036911010742,0.016643047332763672,-0.0805596113204956
1732621172089729500,4.2017294921875,-1.0638113021850586,-0.034544944763183594,-0.2825983166694641
1732621172099771000,4.21177099609375,-0.9394798278808594,-0.03581380844116211,-0.30994051694869995
1732621172109812200,4.221812255859375,-0.6583347320556641,0.008939743041992188,-0.300323486328125
1732621172119853300,4.231853271484375,-0.5269389152526855,-0.0026721954345703125,-0.332694947719574
1732621172129894400,4.241894287109375,-0.5096712112426758,0.04346418380737305,-0.2411622405052185
1732621172139935500,4.251935546875,-0.5111079216003418,0.08469867706298828,-0.15660279989242554
1732621172149976600,4.2619765625,-0.4698042869567871,0.10201263427734375,0.011446714401245117
1732621172160018000,4.272017822265625,-0.5371346473693848,0.06252574920654297,0.16500937938690186
1732621172170059000,4.28205908203125,-0.6553902626037598,0.013686180114746094,0.00251162052154541
1732621172180100400,4.292100341796875,-0.7679553031921387,-0.04477643966674805,-0.2279583215713501
1732621172190141700,4.3021416015625,-0.8524456024169922,-0.09458684921264648,-0.32038038969039917
1732621172200183300,4.312183349609375,-0.7306938171386719,-0.07974672317504883,-0.42800289392471313
1732621172210224600,4.322224609375,-0.4571199417114258,-0.014646530151367188,-0.3335707187652588
1732621172220266200,4.332266357421875,-0.3622469902038574,0.02619028091430664,-0.17596381902694702
1732621172230307800,4.342307861328125,-0.44755983352661133,0.07606840133666992,-0.06254696846008301
1732621172240349400,4.352349365234375,-0.5311360359191895,0.12050008773803711,-0.08622992038726807
1732621172250373600,4.36237353515625,-0.48101043701171875,0.15976619720458984,-0.12286502122879028
1732621172260399000,4.372399169921875,-0.3506627082824707,0.17575788497924805,-0.13480770587921143
1732621172270376200,4.382376220703125,-0.3348698616027832,0.1731257438659668,0.07629120349884033
1732621172280359700,4.392359619140625,-0.3002495765686035,0.1987910270690918,0.08766722679138184
1732621172290347000,4.402346923828125,-0.3084602355957031,0.15813875198364258,-0.09375309944152832
1732621172300344600,4.412344482421875,-0.38271427154541016,0.09914493560791016,-0.09349000453948975
1732621172310349600,4.422349609375,-0.5032329559326172,0.07388067245483398,-0.20268791913986206
1732621172320367600,4.43236767578125,-0.5234699249267578,0.10517406463623047,-0.36374014616012573
1732621172330394000,4.44239404296875,-0.4026784896850586,0.12604665756225586,-0.2736790180206299
1732621172340434400,4.452434326171875,-0.32624244689941406,0.14670276641845703,-0.17142468690872192
1732621172350483200,4.462483154296875,-0.36374616622924805,0.14867448806762695,-0.19387131929397583
1732621172360544500,4.47254443359375,-0.38125038146972656,0.14166975021362305,-0.09293544292449951
1732621172370612200,4.4826123046875,-0.35053205490112305,0.14948511123657227,0.017620444297790527
1732621172380690000,4.49268994140625,-0.3714938163757324,0.16230392456054688,0.07622313499450684
1732621172390770700,4.502770751953125,-0.38735151290893555,0.1512584686279297,0.031114816665649414
1732621172400858000,4.512858154296875,-0.37986135482788086,0.08343648910522461,-0.08436787128448486
1732621172410950000,4.522949951171875,-0.4057950973510742,0.007146358489990234,-0.16127073764801025
1732621172421043700,4.533043701171875,-0.4456486701965332,0.0027022361755371094,-0.2613344192504883
1732621172431136800,4.54313671875,-0.48998165130615234,0.0026497840881347656,-0.2894860506057739
1732621172441177900,4.553177734375,-0.4445376396179199,0.021059513092041016,-0.16719597578048706
1732621172451218700,4.56321875,-0.30075931549072266,0.048763275146484375,-0.042293548583984375
1732621172461259800,4.573259765625,-0.17260026931762695,0.06740808486938477,0.03908538818359375
1732621172471300600,4.583300537109375,-0.12069892883300781,0.06798458099365234,0.007717490196228027
1732621172481341700,4.593341796875,-0.13914251327514648,0.07904195785522461,0.05358684062957764
1732621172491382800,4.6033828125,-0.28388118743896484,0.03390693664550781,0.11360204219818115
1732621172501423900,4.613423828125,-0.46453380584716797,0.01723003387451172,-0.11551642417907715
1732621172511465200,4.62346533203125,-0.5731930732727051,-0.0053844451904296875,-0.2297137975692749
1732621172521506600,4.633506591796875,-0.5690913200378418,-0.04857349395751953,-0.1452709436416626
1732621172531548000,4.6435478515625,-0.41100549697875977,-0.04528665542602539,-0.22353488206863403
1732621172541589200,4.65358935546875,-0.2134404182434082,-0.004536151885986328,-0.22133690118789673
1732621172551630800,4.663630859375,-0.11290836334228516,0.05017280578613281,-0.12013602256774902
1732621172561672400,4.67367236328125,-0.06501197814941406,0.07641839981079102,0.051472008228302
1732621172571714000,4.683714111328125,-0.1342930793762207,0.07059621810913086,0.12236487865447998
1732621172581755600,4.693755615234375,-0.23907947540283203,0.06592416763305664,-0.047810912132263184
1732621172591797500,4.703797607421875,-0.3227839469909668,0.033548831939697266,-0.07349997758865356
1732621172601839000,4.713839111328125,-0.36743593215942383,0.044156551361083984,-0.16521042585372925
1732621172611881000,4.723880859375,-0.41185569763183594,0.04476451873779297,-0.199870765209198
1732621172621922800,4.7339228515625,-0.44239044189453125,0.04445314407348633,-0.13139063119888306
1732621172631942700,4.743942626953125,-0.5016603469848633,0.03843402862548828,0.03920036554336548
1732621172641942300,4.7539423828125,-0.5140743255615234,0.04050636291503906,-0.046918630599975586
1732621172651942100,4.763942138671875,-0.41410255432128906,0.013430118560791016,-0.21248173713684082
1732621172661943000,4.773943115234375,-0.19321107864379883,0.020007610321044922,-0.18764102458953857
1732621172671946800,4.78394677734375,0.011214733123779297,0.02777242660522461,0.08289593458175659
1732621172681954300,4.793954345703125,-0.049883365631103516,0.04650449752807617,0.05803412199020386
1732621172691967200,4.80396728515625,-0.26534414291381836,0.07449531555175781,-0.0044724345207214355
1732621172701986300,4.813986328125,-0.3368682861328125,0.06807851791381836,0.06994283199310303
1732621172712012300,4.82401220703125,-0.22401857376098633,0.02820873260498047,0.07233947515487671
1732621172722048500,4.834048583984375,-0.12183380126953125,0.017812252044677734,-0.09860539436340332
1732621172732091600,4.844091552734375,-0.05346202850341797,0.003673076629638672,-0.1290813684463501
1732621172742142500,4.854142578125,-0.07470512390136719,-0.004562854766845703,-0.08722800016403198
1732621172752199000,4.864198974609375,-0.1845545768737793,-0.01211690902709961,-0.06452947854995728
1732621172762260500,4.874260498046875,-0.28316164016723633,0.008753776550292969,-0.07546448707580566
1732621172772326100,4.884326171875,-0.3574051856994629,0.00018930435180664062,-0.00672382116317749
1732621172782394600,4.89439453125,-0.36086559295654297,0.0142364501953125,-0.020139634609222412
1732621172792469800,4.9044697265625,-0.30394983291625977,0.04132652282714844,-0.06737780570983887
1732621172802548000,4.9145478515625,-0.20113849639892578,0.058336734771728516,-0.04375028610229492
1732621172812622600,4.92462255859375,-0.04296445846557617,0.06605195999145508,0.013711512088775635
1732621172822630700,4.934630615234375,-0.027983665466308594,0.06021595001220703,-0.05604177713394165
1732621172832640000,4.944639892578125,-0.10234451293945312,0.050263404846191406,-0.11547642946243286
1732621172842656500,4.954656494140625,-0.1568460464477539,0.05442619323730469,-0.000031054019927978516
1732621172852681200,4.96468115234375,-0.23935222625732422,0.02961587905883789,0.0046610236167907715
1732621172862713000,4.974713134765625,-0.23171424865722656,0.0043659210205078125,-0.07053405046463013
1732621172872751600,4.984751708984375,-0.1587677001953125,0.0025119781494140625,-0.007765710353851318
1732621172882795000,4.994794921875,-0.14826154708862305,0.014781475067138672,0.11091393232345581
1732621172892841700,5.004841796875,-0.14232873916625977,0.02234363555908203,0.08719980716705322
1732621172902891300,5.014891357421875,-0.11748361587524414,0.020507335662841797,-0.11020404100418091
1732621172912943000,5.024943115234375,-0.13530635833740234,-0.0046539306640625,-0.18680733442306519
1732621172922997000,5.0349970703125,-0.24283504486083984,0.01729440689086914,-0.22525101900100708
1732621172933052400,5.045052490234375,-0.22688865661621094,0.01456451416015625,-0.2167987823486328
1732621172943108400,5.0551083984375,-0.1600055694580078,0.03959512710571289,-0.11984586715698242
1732621172953164500,5.06516455078125,-0.07578659057617188,0.04035186767578125,0.021700799465179443
1732621172963210000,5.0752099609375,-0.0021080970764160156,0.046156883239746094,0.03344690799713135
1732621172973260000,5.085260009765625,-0.018455028533935547,0.052585601806640625,0.03129541873931885
1732621172983292400,5.09529248046875,-0.05273294448852539,0.07359552383422852,0.04433393478393555
1732621172993330200,5.105330078125,-0.06699657440185547,0.09469985961914062,0.030337989330291748
1732621173003368200,5.1153681640625,-0.0949392318725586,0.09681224822998047,-0.0538783073425293
1732621173013411300,5.125411376953125,-0.08039188385009766,0.1175680160522461,-0.11482197046279907
1732621173023454500,5.135454345703125,-0.0992422103881836,0.10032844543457031,-0.1339746117591858
1732621173033502700,5.145502685546875,-0.13198280334472656,0.07397317886352539,-0.14404982328414917
1732621173043541000,5.155541015625,-0.1782212257385254,0.015184879302978516,-0.21996670961380005
1732621173053584100,5.165584228515625,-0.1529536247253418,-0.004801273345947266,-0.16312330961227417
1732621173063623700,5.175623779296875,-0.10437393188476562,-0.024388790130615234,-0.04037731885910034
1732621173073668000,5.185668212890625,-0.11301040649414062,-0.010607719421386719,-0.05578148365020752
1732621173083706000,5.1957060546875,-0.14048480987548828,0.031090259552001953,0.04664301872253418
1732621173093749200,5.205749267578125,-0.21470117568969727,0.04354095458984375,0.19578444957733154
1732621173103790600,5.21579052734375,-0.29283571243286133,0.04090118408203125,0.19825679063796997
1732621173113837000,5.225837158203125,-0.31377744674682617,-0.023761272430419922,-0.11880731582641602
1732621173123887600,5.2358876953125,-0.24100065231323242,-0.07384681701660156,-0.3760848641395569
1732621173133942000,5.24594189453125,-0.004835605621337891,-0.05720996856689453,-0.24918317794799805
1732621173143999500,5.25599951171875,0.12446928024291992,-0.025890350341796875,-0.039897263050079346
1732621173154059500,5.2660595703125,-0.04006528854370117,0.04317951202392578,-0.08948767185211182
1732621173164120800,5.276120849609375,-0.1838674545288086,0.05848884582519531,-0.05911606550216675
1732621173174183000,5.286182861328125,-0.1374669075012207,0.06819534301757812,0.05990755558013916
1732621173184240600,5.29624072265625,0.012417793273925781,0.09706354141235352,0.16414016485214233
1732621173194282000,5.306281982421875,0.07155418395996094,0.09836864471435547,0.03234964609146118
1732621173204323300,5.3163232421875,0.07906198501586914,0.09605598449707031,0.016941487789154053
1732621173214364700,5.32636474609375,0.05434083938598633,0.09458589553833008,-0.03964662551879883
1732621173224406000,5.336406005859375,-0.05935096740722656,0.0979914665222168,-0.09058594703674316
1732621173234447400,5.346447265625,-0.1622905731201172,0.05362987518310547,-0.15488451719284058
1732621173244488700,5.35648876953125,-0.21250629425048828,0.02817249298095703,-0.16767460107803345
1732621173254530000,5.366530029296875,-0.1730794906616211,0.04489469528198242,-0.05385994911193848
1732621173264571400,5.3765712890625,-0.07791614532470703,0.06114768981933594,-0.05002039670944214
1732621173274612700,5.38661279296875,0.0915837287902832,0.06835746765136719,-0.01840054988861084
1732621173284654000,5.396654052734375,0.08511781692504883,0.07671260833740234,0.04566514492034912
1732621173294695400,5.4066953125,0.01823139190673828,0.07146930694580078,0.03396010398864746
1732621173304736800,5.41673681640625,-0.06136512756347656,0.0854029655456543,0.0466160774230957
1732621173314778400,5.4267783203125,-0.17807769775390625,0.08881759643554688,0.1112363338470459
1732621173324819700,5.43681982421875,-0.1855916976928711,0.05322551727294922,-0.017883896827697754
1732621173334861000,5.446861083984375,-0.07107877731323242,-0.0059833526611328125,-0.10229122638702393
1732621173344902400,5.45690234375,0.013787269592285156,-0.03068256378173828,-0.11446428298950195
1732621173354943700,5.46694384765625,-0.0338282585144043,-0.025783538818359375,-0.15947633981704712
1732621173364985300,5.4769853515625,-0.16086959838867188,0.03088665008544922,-0.15781092643737793
1732621173375026700,5.487026611328125,-0.2537727355957031,0.08111572265625,-0.0683661699295044
1732621173385068300,5.497068359375,-0.23343610763549805,0.11968421936035156,0.052012085914611816
1732621173395109400,5.507109375,-0.0818796157836914,0.11479377746582031,0.02932882308959961
1732621173405150700,5.517150634765625,0.05385637283325195,0.10125923156738281,0.12152713537216187
1732621173415192000,5.527192138671875,0.09438657760620117,0.0890355110168457,0.1765047311782837
1732621173425233200,5.537233154296875,0.05059051513671875,0.06397628784179688,0.05250304937362671
1732621173435274500,5.5472744140625,-0.05814409255981445,0.030308246612548828,-0.09357696771621704
1732621173445315800,5.55731591796875,-0.10464191436767578,0.02945995330810547,-0.10170948505401611
1732621173455357000,5.56735693359375,-0.0807485580444336,0.055896759033203125,-0.06821697950363159
1732621173465398300,5.577398193359375,-0.02930736541748047,0.0627284049987793,-0.09668749570846558
1732621173475439600,5.587439697265625,0.007092952728271484,0.07410240173339844,-0.03045070171356201
1732621173485481000,5.59748095703125,0.04344654083251953,0.06695795059204102,0.05412167310714722
1732621173495522300,5.607522216796875,0.0421748161315918,0.05116462707519531,-0.031875550746917725
1732621173505564000,5.61756396484375,-0.005736351013183594,0.04087686538696289,-0.12148511409759521
1732621173515605200,5.627605224609375,-0.05295896530151367,0.030661582946777344,-0.13905930519104004
1732621173525646600,5.637646484375,-0.07644796371459961,0.019992828369140625,-0.11414062976837158
1732621173535688000,5.64768798828125,-0.07714128494262695,-0.00101470947265625,0.008336305618286133
1732621173545729500,5.6577294921875,-0.09755134582519531,0.010506629943847656,0.0571061372756958
1732621173555771000,5.66777099609375,-0.1560840606689453,0.039881229400634766,0.0012444853782653809
1732621173565812200,5.677812255859375,-0.15319013595581055,0.03959083557128906,-0.04381924867630005
1732621173575853800,5.687853759765625,-0.04234123229980469,0.048290252685546875,-0.078255295753479
1732621173585779700,5.69777978515625,0.11441946029663086,0.029153823852539062,-0.0311892032623291
1732621173595714800,5.70771484375,0.2180318832397461,0.006872653961181641,-0.03113609552383423
1732621173605663000,5.7176630859375,0.14670705795288086,0.014368057250976562,-0.049693763256073
1732621173615627800,5.727627685546875,0.02932596206665039,0.031136512756347656,0.0066414475440979
1732621173625611000,5.737611083984375,-0.001975536346435547,0.037596702575683594,-0.07062208652496338
1732621173635615000,5.747614990234375,-0.0003991127014160156,0.010603904724121094,-0.10617470741271973
1732621173645639700,5.7576396484375,0.010096549987792969,-0.002055644989013672,-0.13341164588928223
1732621173655685000,5.76768505859375,0.010841846466064453,0.03727102279663086,-0.080849289894104
1732621173665750500,5.77775048828125,0.035099029541015625,0.0805659294128418,0.09846991300582886
1732621173675834000,5.787834228515625,0.06838560104370117,0.11353492736816406,0.18194949626922607
1732621173685933300,5.797933349609375,0.1250443458557129,0.11784696578979492,0.07249987125396729
1732621173696045000,5.808045166015625,0.11513710021972656,0.08467483520507812,0.012525439262390137
1732621173706166500,5.81816650390625,0.034755706787109375,0.08505582809448242,0.06669723987579346
1732621173716293600,5.828293701171875,-0.05415534973144531,0.08501291275024414,0.01600635051727295
1732621173726422800,5.8384228515625,-0.06677484512329102,0.0844268798828125,-0.04828035831451416
1732621173736516900,5.848516845703125,0.02898550033569336,0.08843851089477539,-0.05539679527282715
1732621173746558200,5.85855810546875,0.06735038757324219,0.11209964752197266,-0.03947901725769043
1732621173756599600,5.868599609375,0.0493617057800293,0.16449451446533203,0.04685342311859131
1732621173766640600,5.878640625,0.027781963348388672,0.19309568405151367,0.15206336975097656
1732621173776681700,5.888681640625,-0.016492843627929688,0.18863439559936523,0.11034822463989258
1732621173786723000,5.89872314453125,0.02968740463256836,0.16085147857666016,0.06027853488922119
1732621173796764200,5.90876416015625,0.0709991455078125,0.11054611206054688,0.1481032371520996
1732621173806805200,5.91880517578125,0.0038356781005859375,0.04275035858154297,0.10776162147521973
1732621173816846600,5.9288466796875,-0.10471296310424805,0.004244327545166016,0.016261696815490723
1732621173826888000,5.938887939453125,-0.1601114273071289,-0.005785942077636719,-0.003487706184387207
1732621173836833000,5.9488330078125,-0.11635828018188477,0.03549623489379883,0.00970315933227539
1732621173846786000,5.9587861328125,-0.02184009552001953,0.03335237503051758,0.008528709411621094
1732621173856750000,5.96875,0.07148122787475586,0.017539501190185547,-0.08707225322723389
1732621173866727400,5.9787275390625,0.10750722885131836,0.016922950744628906,-0.07727289199829102
1732621173876720600,5.988720703125,0.05884599685668945,0.031167030334472656,-0.010944008827209473
1732621173886730800,5.998730712890625,-0.021724224090576172,0.02656269073486328,0.045079708099365234
1732621173896758300,6.00875830078125,-0.05884122848510742,0.002936840057373047,0.057464599609375
1732621173906803200,6.01880322265625,-0.010753631591796875,0.031305789947509766,0.008396744728088379
1732621173916864500,6.028864501953125,0.07425975799560547,0.026309967041015625,-0.035437583923339844
1732621173926941000,6.03894091796875,0.10658979415893555,0.04075050354003906,0.02083289623260498
1732621173937030700,6.04903076171875,0.03506803512573242,0.059960365295410156,-0.09313821792602539
1732621173947130600,6.059130615234375,-0.026203632354736328,0.05507469177246094,-0.18738800287246704
1732621173957238800,6.06923876953125,0.002814769744873047,0.05018949508666992,-0.16810184717178345
1732621173967351600,6.0793515625,0.012629985809326172,0.05506610870361328,-0.15937191247940063
1732621173977466000,6.089466064453125,0.0033545494079589844,0.02215433120727539,-0.13237690925598145
1732621173987551500,6.099551513671875,0.08859682083129883,0.027681350708007812,-0.035511136054992676
1732621173997592800,6.1095927734375,0.17288732528686523,0.019445419311523438,0.0504908561706543
1732621174007634200,6.11963427734375,0.17166757583618164,-0.011586666107177734,0.07918155193328857
1732621174017675500,6.129675537109375,-0.02222442626953125,-0.008672237396240234,-0.010177850723266602
1732621174027716900,6.139716796875,-0.20882701873779297,-0.011159420013427734,-0.07941913604736328
1732621174037758000,6.149758056640625,-0.2616147994995117,-0.02420949935913086,-0.08199572563171387
1732621174047799000,6.159799072265625,-0.18260765075683594,-0.04747724533081055,-0.09409487247467041
1732621174057840000,6.169840087890625,-0.0062122344970703125,-0.042386531829833984,-0.034955739974975586
1732621174067881500,6.179881591796875,0.1067800521850586,-0.03653097152709961,-0.009992837905883789
1732621174077922600,6.189922607421875,0.07754755020141602,-0.006241798400878906,0.06675028800964355
1732621174087953400,6.199953369140625,-0.10611104965209961,-0.008854389190673828,-0.03209543228149414
1732621174097985000,6.209985107421875,-0.23572492599487305,-0.03101205825805664,-0.021733999252319336
1732621174108017700,6.220017578125,-0.15683603286743164,-0.011372089385986328,0.016643047332763672
1732621174118052000,6.230052001953125,0.0008487701416015625,-0.0014801025390625,-0.020850181579589844
1732621174128088300,6.24008837890625,0.07667779922485352,0.009028911590576172,0.07963502407073975
1732621174138126300,6.250126220703125,0.053241729736328125,0.0390162467956543,0.028705358505249023
1732621174148166100,6.260166259765625,0.016676902770996094,0.06911039352416992,0.04480564594268799
1732621174158208300,6.270208251953125,-0.02375316619873047,0.07062625885009766,0.14108741283416748
1732621174168252000,6.280251953125,-0.06324911117553711,0.025233745574951172,0.10413050651550293
1732621174178297000,6.290297119140625,-0.08298349380493164,-0.009704113006591797,0.001827239990234375
1732621174188344000,6.300343994140625,-0.04565620422363281,-0.034485816955566406,0.00995635986328125
1732621174198392000,6.31039208984375,-0.05106830596923828,-0.030312061309814453,0.013380885124206543
1732621174208440800,6.32044091796875,-0.15068674087524414,-0.016708850860595703,-0.007700085639953613
1732621174218490000,6.330489990234375,-0.16423606872558594,0.024526596069335938,0.0752255916595459
1732621174228539600,6.34053955078125,-0.11650276184082031,0.055246829986572266,0.1533139944076538
1732621174238587000,6.3505869140625,-0.11204767227172852,0.024002552032470703,0.07536149024963379
1732621174248627500,6.36062744140625,-0.14565277099609375,-0.011730194091796875,0.022189736366271973
1732621174258668000,6.37066796875,-0.16975879669189453,-0.042664527893066406,0.05470871925354004
1732621174268708900,6.380708984375,-0.17041397094726562,-0.050074100494384766,0.011375069618225098
1732621174278749400,6.39074951171875,-0.11957693099975586,-0.04360008239746094,-0.01231682300567627
1732621174288790300,6.400790283203125,-0.07899808883666992,-0.07497024536132812,-0.03996753692626953
1732621174298831000,6.4108310546875,-0.057750701904296875,-0.09155893325805664,-0.07142782211303711
1732621174308872200,6.4208720703125,-0.06514739990234375,-0.08910083770751953,0.020424485206604004
1732621174318913300,6.430913330078125,-0.08196067810058594,-0.06332540512084961,0.03580021858215332
1732621174328954600,6.44095458984375,-0.08003664016723633,-0.06669473648071289,-0.01952195167541504
1732621174338996000,6.450995849609375,-0.021388530731201172,-0.03689241409301758,0.006761908531188965
1732621174349037600,6.46103759765625,-0.06703329086303711,-0.021444320678710938,-0.01406252384185791
1732621174359079400,6.471079345703125,-0.12159967422485352,-0.0347442626953125,0.002850055694580078
1732621174369121300,6.481121337890625,-0.13789749145507812,-0.02453899383544922,0.03314697742462158
1732621174379163100,6.4911630859375,-0.06939411163330078,-0.010190963745117188,-0.007061362266540527
1732621174389205000,6.501205078125,0.0024313926696777344,-0.04818010330200195,-0.03709292411804199
1732621174399246800,6.511246826171875,0.06353139877319336,-0.024220943450927734,-0.03945469856262207
1732621174409289000,6.5212890625,0.07640743255615234,-0.02420520782470703,0.004663348197937012
1732621174419330800,6.531330810546875,-0.019169330596923828,0.00420379638671875,-0.02734088897705078
1732621174429372400,6.541372314453125,-0.11820459365844727,0.0035262107849121094,-0.07303798198699951
1732621174439413800,6.551413818359375,-0.08871793746948242,-0.03510570526123047,-0.12312531471252441
1732621174449454800,6.561454833984375,0.015443801879882812,-0.030883312225341797,-0.08778917789459229
1732621174459496200,6.57149609375,0.16052770614624023,-0.026447772979736328,-0.10020530223846436
1732621174469537300,6.581537353515625,0.1673445701599121,-0.0448002815246582,-0.051284193992614746
1732621174479578400,6.591578369140625,-0.028107166290283203,-0.010539531707763672,0.08140981197357178
1732621174489619500,6.601619384765625,-0.16919469833374023,-0.020069122314453125,0.08504033088684082
1732621174499660800,6.611660888671875,-0.18132925033569336,-0.03950786590576172,0.05568957328796387
1732621174509702000,6.621701904296875,-0.13229751586914062,-0.08708572387695312,-0.0444561243057251
1732621174519743200,6.6317431640625,0.009928703308105469,-0.07270145416259766,-0.16267704963684082
1732621174529784600,6.64178466796875,0.06972026824951172,-0.034891605377197266,-0.11454951763153076
1732621174539826200,6.651826171875,0.03437519073486328,0.06838226318359375,0.017271995544433594
1732621174549867500,6.661867431640625,-0.07089471817016602,0.1324481964111328,0.07128584384918213
1732621174559909000,6.6719091796875,-0.08493566513061523,0.12947893142700195,0.0771338939666748
1732621174569950500,6.681950439453125,0.019515037536621094,0.11759757995605469,0.08318841457366943
1732621174579992000,6.691991943359375,0.09993839263916016,0.10708999633789062,0.1325821876525879
1732621174590033700,6.70203369140625,0.08622169494628906,0.09324836730957031,0.12175500392913818
1732621174600075300,6.7120751953125,0.026316165924072266,0.08952617645263672,0.09860146045684814
1732621174610116600,6.72211669921875,-0.008882999420166016,0.10001707077026367,0.09084463119506836
1732621174620158200,6.732158203125,0.00814962387084961,0.03473615646362305,0.04101574420928955
1732621174630199600,6.742199462890625,0.02454519271850586,0.0032973289489746094,-0.07483816146850586
1732621174640241000,6.752240966796875,0.04052591323852539,-0.013459205627441406,-0.024913907051086426
1732621174650282500,6.762282470703125,0.03741884231567383,-0.011039257049560547,0.005174040794372559
1732621174660324000,6.772323974609375,0.0013623237609863281,0.005560874938964844,-0.027155756950378418
1732621174670365400,6.782365478515625,-0.03888702392578125,-0.0016989707946777344,-0.021615266799926758
1732621174680407000,6.792406982421875,-0.03136777877807617,-0.03253030776977539,0.055254340171813965
1732621174690374400,6.80237451171875,-0.08986663818359375,-0.015917301177978516,0.028717875480651855
1732621174700347400,6.812347412109375,-0.13905000686645508,-0.04318571090698242,0.08771884441375732
1732621174710324200,6.82232421875,-0.18412208557128906,-0.06215620040893555,0.0707402229309082
1732621174720312000,6.83231201171875,-0.15889406204223633,-0.04892683029174805,-0.01723623275756836
1732621174730307300,6.842307373046875,-0.07348394393920898,-0.022384166717529297,-0.02417910099029541
1732621174740316700,6.852316650390625,0.06236696243286133,0.0037484169006347656,0.030331850051879883
1732621174750336300,6.862336181640625,0.18272876739501953,0.025559425354003906,0.07541632652282715
1732621174760371000,6.872370849609375,0.20804166793823242,0.015143394470214844,-0.025393009185791016
1732621174770415600,6.88241552734375,0.0971684455871582,0.020058631896972656,-0.1251755952835083
1732621174780475000,6.892474853515625,-0.012321949005126953,0.010464191436767578,-0.11146998405456543
1732621174790542300,6.902542236328125,-0.01220560073852539,0.00527191162109375,-0.07531583309173584
1732621174800621600,6.91262158203125,0.03502035140991211,-0.023400306701660156,0.007419228553771973
1732621174810706000,6.922705810546875,0.08185482025146484,-0.008915424346923828,0.10851645469665527
1732621174820798000,6.9327978515625,0.0580291748046875,0.00130462646484375,0.1617722511291504
1732621174830895400,6.942895263671875,-0.026668071746826172,0.015899658203125,0.04069948196411133
1732621174840995800,6.952995849609375,-0.025836944580078125,0.024930477142333984,-0.140325665473938
1732621174851096800,6.963096923828125,0.01211690902709961,0.01923990249633789,-0.05545544624328613
1732621174861151700,6.97315185546875,0.03052377700805664,-0.00054931640625,-0.07572543621063232
1732621174871192800,6.98319287109375,-0.017326831817626953,-0.03873157501220703,-0.17648214101791382
1732621174881234000,6.99323388671875,-0.07410240173339844,-0.04816913604736328,-0.12111657857894897
1732621174891275000,7.00327490234375,-0.06421518325805664,-0.01046609878540039,-0.02980196475982666
1732621174901316400,7.01331640625,0.011629104614257812,0.0315556526184082,0.05490875244140625
1732621174911357400,7.023357421875,0.06761598587036133,0.05889463424682617,0.09655904769897461
1732621174921398500,7.0333984375,0.13239145278930664,0.1048583984375,0.0815129280090332
1732621174931439900,7.04343994140625,0.16357707977294922,0.1081390380859375,0.07622921466827393
1732621174941481200,7.053481201171875,0.09101676940917969,0.09757423400878906,0.0010291337966918945
1732621174951522600,7.0635224609375,-0.05093812942504883,0.016466140747070312,-0.09571337699890137
1732621174961564000,7.07356396484375,-0.12972211837768555,-0.03554821014404297,-0.15277886390686035
1732621174971605500,7.08360546875,-0.05227088928222656,-0.0824122428894043,-0.19101554155349731
1732621174981646800,7.093646728515625,0.10867738723754883,-0.048212528228759766,-0.15928179025650024
1732621174991688400,7.1036884765625,0.19181442260742188,0.013996124267578125,-0.06712853908538818
1732621175001730000,7.11372998046875,0.12321710586547852,0.06159210205078125,0.027388334274291992
1732621175011771600,7.123771728515625,0.04644918441772461,0.06611204147338867,0.08733856678009033
1732621175021813200,7.133813232421875,0.074859619140625,0.02838134765625,0.009967923164367676
1732621175031854800,7.143854736328125,0.10336589813232422,-0.017595291137695312,0.004937648773193359
1732621175041896700,7.153896728515625,0.07528018951416016,0.01291513442993164,0.0713193416595459
1732621175051938300,7.163938232421875,0.10896682739257812,0.05707073211669922,0.023804783821105957
1732621175061942000,7.17394189453125,0.10912179946899414,0.09113550186157227,-0.05627238750457764
1732621175071942400,7.1839423828125,0.09045076370239258,0.05869913101196289,-0.03136169910430908
1732621175081942000,7.19394189453125,0.011078357696533203,0.008193492889404297,-0.10572022199630737
1732621175091943400,7.203943359375,-0.038672447204589844,-0.041403770446777344,-0.14605802297592163
1732621175101948200,7.2139482421875,-0.04544830322265625,-0.03851032257080078,-0.04982113838195801
1732621175111957500,7.22395751953125,-0.03817129135131836,0.006586551666259766,0.058570146560668945
1732621175121972500,7.233972412109375,-0.07842302322387695,0.012944221496582031,0.0142897367477417
1732621175131993900,7.243993896484375,-0.0523838996887207,0.03303098678588867,-0.06731784343719482
1732621175142027000,7.254027099609375,-0.012627124786376953,0.029175758361816406,-0.015195488929748535
1732621175152070000,7.26406982421875,-0.0017595291137695312,0.03471183776855469,0.05108356475830078
1732621175162120200,7.2741201171875,0.013670921325683594,-0.0022430419921875,0.04110610485076904
1732621175172176100,7.284176025390625,0.00033473968505859375,-0.010562896728515625,0.04534268379211426
1732621175182237200,7.2942373046875,0.001033782958984375,-0.04725790023803711,-0.035904645919799805
1732621175192302000,7.304302001953125,-0.021915435791015625,-0.0363163948059082,-0.04042553901672363
1732621175202369800,7.314369873046875,-0.049268245697021484,-0.058696746826171875,-0.11030375957489014
1732621175212439300,7.324439208984375,-0.03380250930786133,-0.03363466262817383,-0.1460244059562683
1732621175222513700,7.334513671875,-0.009394168853759766,-0.03741788864135742,-0.12511450052261353
1732621175232589800,7.34458984375,0.032909393310546875,-0.0038595199584960938,-0.04442179203033447
1732621175242617300,7.354617431640625,0.0696415901184082,0.024353504180908203,0.0343320369720459
1732621175252644900,7.364644775390625,0.09645652770996094,0.033370018005371094,0.06472241878509521
1732621175262673000,7.3746728515625,0.0807809829711914,0.04251575469970703,0.05287289619445801
1732621175272706800,7.384706787109375,0.032691001892089844,0.042354583740234375,0.060425639152526855
1732621175282746600,7.39474658203125,0.01867055892944336,0.018930435180664062,-0.04035830497741699
1732621175292791600,7.40479150390625,0.0051174163818359375,-0.00382232666015625,-0.06428563594818115
1732621175302839800,7.41483984375,-0.03665018081665039,-0.03574562072753906,-0.07404768466949463
1732621175312888000,7.42488818359375,-0.04999685287475586,-0.07224559783935547,-0.13664895296096802
1732621175322934800,7.434934814453125,-0.06370019912719727,-0.023875713348388672,-0.010294914245605469
1732621175332977700,7.444977783203125,-0.025527477264404297,-0.037761688232421875,0.010434627532958984
1732621175343017700,7.455017822265625,-0.0016012191772460938,0.01034402847290039,0.016982078552246094
1732621175353058000,7.46505810546875,-0.00562286376953125,0.034748077392578125,0.06185173988342285
1732621175363098000,7.47509814453125,0.024048805236816406,0.031113624572753906,0.016854047775268555
1732621175373138400,7.485138427734375,0.11483097076416016,0.04683971405029297,0.00045752525329589844
1732621175383179000,7.495178955078125,0.11954689025878906,0.015560626983642578,0.0025326013565063477
1732621175393224400,7.505224365234375,0.05366706848144531,-0.01973438262939453,-0.05202591419219971
1732621175403266300,7.515266357421875,-0.1388540267944336,-0.07858800888061523,-0.11030435562133789
1732621175413312500,7.5253125,-0.27259111404418945,-0.12809228897094727,-0.1721733808517456
1732621175423350300,7.535350341796875,-0.3017587661743164,-0.1451396942138672,-0.11089229583740234
1732621175433393000,7.545392822265625,-0.0819387435913086,-0.1301555633544922,0.033852338790893555
1732621175443431700,7.555431640625,0.17668771743774414,-0.09186792373657227,0.10129773616790771
1732621175453475300,7.565475341796875,0.1300048828125,0.0028853416442871094,0.08272743225097656
1732621175463514600,7.5755146484375,-0.033608436584472656,0.030202865600585938,0.08317339420318604
1732621175473558500,7.58555859375,-0.03906679153442383,0.04291343688964844,-0.010735154151916504
1732621175483597600,7.59559765625,0.04090070724487305,0.03244209289550781,0.009941339492797852
1732621175493641500,7.605641357421875,0.08738327026367188,0.013528823852539062,-0.016322612762451172
1732621175503680300,7.61568017578125,0.06280851364135742,0.004816532135009766,-0.02830970287322998
1732621175513724000,7.625723876953125,0.07149410247802734,0.029129981994628906,-0.007356882095336914
1732621175523763000,7.635762939453125,0.06134033203125,0.03904390335083008,-0.0007396936416625977
1732621175533806800,7.645806884765625,0.042386531829833984,0.030324935913085938,0.06297707557678223
1732621175543855400,7.65585546875,0.05285358428955078,0.008327007293701172,0.07028186321258545
1732621175553907700,7.66590771484375,0.0022401809692382812,0.0012540817260742188,0.015864849090576172
1732621175563964000,7.6759638671875,-0.06617593765258789,-0.024352550506591797,0.05200004577636719
1732621175574022700,7.686022705078125,-0.15311336517333984,-0.022030353546142578,-0.03564143180847168
1732621175584083500,7.69608349609375,-0.21144342422485352,-0.016115665435791016,-0.05184757709503174
1732621175594145300,7.706145263671875,-0.21338796615600586,0.03565502166748047,-0.011565685272216797
1732621175604207600,7.71620751953125,-0.14542913436889648,0.09046459197998047,0.05601930618286133
1732621175614256000,7.726256103515625,-0.00803995132446289,0.08767843246459961,0.11799740791320801
1732621175624297000,7.736296875,0.1469287872314453,0.034087181091308594,0.07141411304473877
1732621175634338000,7.746338134765625,0.18799734115600586,-0.016828060150146484,-0.006744027137756348
1732621175644379000,7.75637890625,0.0937185287475586,-0.050887107849121094,-0.011504769325256348
1732621175654419700,7.766419677734375,-0.059864044189453125,-0.05091142654418945,0.006858348846435547
1732621175664460800,7.776460693359375,-0.18278741836547852,-0.02284860610961914,0.10031783580780029
1732621175674502000,7.786501953125,-0.11612939834594727,-0.010322093963623047,-0.02477109432220459
1732621175684543000,7.79654296875,0.024210453033447266,0.001491546630859375,-0.011898398399353027
1732621175694584000,7.806583984375,0.129302978515625,0.027341842651367188,0.043019890785217285
1732621175704625400,7.81662548828125,0.14867067337036133,0.011117935180664062,0.12612128257751465
1732621175714666800,7.826666748046875,0.1026906967163086,-0.004027843475341797,0.09596896171569824
1732621175724708000,7.8367080078125,0.07690238952636719,0.00047779083251953125,0.08091843128204346
1732621175734749700,7.846749755859375,0.11298131942749023,-0.0231170654296875,-0.042382001876831055
1732621175744791300,7.856791259765625,0.12487411499023438,-0.046193599700927734,-0.07500016689300537
1732621175754833000,7.8668330078125,0.06122112274169922,-0.06408548355102539,-0.05083787441253662
1732621175764874500,7.87687451171875,-0.04880189895629883,-0.06305980682373047,-0.004205107688903809
1732621175774916000,7.886916015625,-0.02526092529296875,-0.08569145202636719,0.03161466121673584
1732621175784958000,7.8969580078125,0.007416248321533203,-0.04178333282470703,0.005123496055603027
1732621175794999600,7.90699951171875,0.053963661193847656,0.006474494934082031,-0.03537142276763916
1732621175805041400,7.91704150390625,0.0340723991394043,0.01658487319946289,-0.09884488582611084
1732621175815083000,7.9270830078125,-0.047113895416259766,-0.016326427459716797,-0.23641210794448853
1732621175825004500,7.937004638671875,-0.17008209228515625,-0.011785030364990234,-0.24459409713745117
1732621175834935600,7.946935546875,-0.18425512313842773,-0.022989749908447266,-0.2162894606590271
1732621175844880400,7.95688037109375,-0.16646957397460938,0.002463817596435547,-0.15643131732940674
1732621175854841900,7.966841796875,-0.2159743309020996,0.002879619598388672,0.0621105432510376
1732621175864823000,7.976822998046875,-0.3272213935852051,-0.031351566314697266,0.22634422779083252
1732621175874825000,7.986824951171875,-0.3150343894958496,-0.06147575378417969,0.19096076488494873
1732621175884849200,7.99684912109375,-0.10976219177246094,-0.07696819305419922,0.15231740474700928
1732621175894894600,8.00689453125,-0.010241508483886719,-0.06275558471679688,0.1676715612411499
1732621175904960800,8.016960693359374,0.022345542907714844,0.022460460662841797,0.0848393440246582
1732621175915045600,8.027045654296876,-0.07320165634155273,0.10594797134399414,-0.02556765079498291
1732621175925142000,8.03714208984375,-0.0030608177185058594,0.06506538391113281,0.00975954532623291
1732621175935252200,8.047252197265625,0.16098594665527344,0.06339359283447266,-0.020879387855529785
1732621175945372400,8.057372314453126,0.26771020889282227,-0.0022635459899902344,0.0773242712020874
1732621175955499800,8.067499755859375,0.18143320083618164,0.005469322204589844,0.26149725914001465
1732621175965630000,8.0776298828125,0.022233963012695312,-0.023896217346191406,0.19985640048980713
1732621175975745300,8.087745361328125,-0.2055802345275879,-0.09112882614135742,0.0215073823928833
1732621175985787000,8.097786865234376,-0.28061628341674805,-0.1967148780822754,-0.07944226264953613
1732621175995828200,8.107828125,-0.09666204452514648,-0.17477750778198242,-0.2639598250389099
1732621176005869600,8.11786962890625,-0.053182125091552734,-0.1300501823425293,-0.301979124546051
1732621176015910700,8.12791064453125,-0.025571823120117188,-0.09641218185424805,-0.1850295066833496
1732621176025951700,8.13795166015625,0.034121036529541016,-0.0022721290588378906,-0.07170939445495605
1732621176035992800,8.147992919921874,0.05057525634765625,0.038706302642822266,0.03941702842712402
1732621176046034200,8.1580341796875,-0.02692413330078125,0.08423614501953125,0.017230987548828125
1732621176056075300,8.1680751953125,-0.10277843475341797,0.025542259216308594,0.0437164306640625
1732621176066116400,8.178116455078126,-0.08325433731079102,-0.03713798522949219,-0.009580492973327637
1732621176076157700,8.18815771484375,-0.05485200881958008,-0.05189180374145508,0.046289920806884766
1732621176086079700,8.198079833984375,-0.0692892074584961,-0.047525882720947266,0.09656667709350586
1732621176096011500,8.208011474609375,-0.07915401458740234,-0.01071929931640625,0.1179889440536499
1732621176105957000,8.21795703125,-0.01356649398803711,0.034632205963134766,0.04103660583496094
1732621176115919400,8.22791943359375,0.04189348220825195,0.08431386947631836,-0.015484809875488281
1732621176125900800,8.23790087890625,0.03571796417236328,0.07252740859985352,0.027794837951660156
1732621176135903500,8.247903564453125,0.01156759262084961,0.033528804779052734,-0.038062214851379395
1732621176145927700,8.257927734375,-0.03044891357421875,-0.004161834716796875,0.0007007122039794922
1732621176155973600,8.2679736328125,-0.038504600524902344,-0.050415992736816406,-0.012546062469482422
1732621176166039800,8.278039794921876,-0.027359962463378906,-0.07677364349365234,-0.04461479187011719
1732621176176124700,8.288124755859375,-0.04936504364013672,-0.06972455978393555,-0.057157158851623535
1732621176186225700,8.2982255859375,-0.07165145874023438,-0.0022993087768554688,-0.04102933406829834
1732621176196340000,8.308340087890626,-0.04766511917114258,0.10041189193725586,-0.07732820510864258
1732621176206463700,8.318463623046876,-0.006767749786376953,0.18106746673583984,-0.09056484699249268
1732621176216593700,8.32859375,0.11742401123046875,0.21248483657836914,-0.010057330131530762
1732621176226725600,8.3387255859375,0.20230388641357422,0.16384124755859375,-0.039545297622680664
1732621176236821200,8.3488212890625,0.19773530960083008,0.018628597259521484,-0.10107970237731934
1732621176246862600,8.358862548828125,0.049062252044677734,-0.1175074577331543,-0.15627586841583252
1732621176256904000,8.368904052734376,-0.14788389205932617,-0.2220315933227539,-0.08748126029968262
1732621176266945300,8.3789453125,-0.2523832321166992,-0.2592759132385254,-0.01491391658782959
1732621176276986600,8.388986572265624,-0.1588430404663086,-0.1798710823059082,0.009443044662475586
1732621176287028000,8.399028076171875,-0.007413387298583984,-0.11302661895751953,0.051287174224853516
1732621176297069600,8.409069580078125,0.08849048614501953,-0.06248140335083008,-0.007907271385192871
1732621176307111000,8.41911083984375,0.022216320037841797,-0.017792701721191406,-0.11398589611053467
1732621176317152300,8.42915234375,-0.02842855453491211,-0.0018115043640136719,-0.1987224817276001
1732621176327193600,8.439193603515625,-0.021192073822021484,0.0144195556640625,-0.14990544319152832
1732621176337114400,8.4491142578125,0.14696121215820312,-0.02059650421142578,-0.03536653518676758
1732621176347044900,8.459044921875,0.14867687225341797,-0.02069854736328125,-0.021520256996154785
1732621176356989000,8.468989013671875,-0.08021736145019531,0.031450748443603516,0.052571892738342285
1732621176366950100,8.4789501953125,-0.2077651023864746,0.08123636245727539,0.12516582012176514
1732621176376930800,8.488930908203125,-0.07526206970214844,0.12886762619018555,0.1872539520263672
1732621176386932700,8.4989326171875,0.14436626434326172,0.10494565963745117,0.17238962650299072
1732621176396956700,8.508956787109375,0.3241424560546875,0.0828847885131836,0.08813762664794922
1732621176407002400,8.51900244140625,0.2535405158996582,0.07751178741455078,0.026024699211120605
1732621176417068500,8.529068603515626,0.04874229431152344,0.0450286865234375,-0.03337860107421875
1732621176427153700,8.539153564453125,-0.058929443359375,0.026689529418945312,-0.12491750717163086
1732621176437253600,8.549253662109376,-0.033917903900146484,-0.006352901458740234,-0.10321485996246338
1732621176447367200,8.5593671875,0.04183626174926758,-0.020534992218017578,-0.06409871578216553
1732621176457490700,8.56949072265625,0.0598139762878418,-0.024944782257080078,-0.09210598468780518
1732621176467620600,8.57962060546875,0.0780935287475586,-0.005139350891113281,-0.02501511573791504
1732621176477752800,8.5897529296875,0.05916643142700195,-0.017863750457763672,0.05555689334869385
1732621176487855900,8.59985595703125,-0.05785083770751953,-0.043914794921875,0.031058669090270996
1732621176497897200,8.609897216796876,-0.21087408065795898,-0.05569887161254883,-0.0024107694625854492
1732621176507938600,8.6199384765625,-0.29195213317871094,-0.08282327651977539,-0.08708906173706055
1732621176517980000,8.62997998046875,-0.25093889236450195,-0.045540809631347656,-0.0003135204315185547
1732621176528021200,8.640021240234375,-0.13660144805908203,-0.010323047637939453,-0.00012934207916259766
1732621176538046000,8.6500458984375,0.012740135192871094,0.04714822769165039,0.04167282581329346
1732621176548072000,8.660072021484375,0.20702171325683594,0.0710153579711914,0.11117124557495117
1732621176558099700,8.670099609375,0.3146524429321289,0.06289958953857422,0.10015642642974854
1732621176568129800,8.6801298828125,0.29972362518310547,0.06149911880493164,0.04231727123260498
1732621176578162700,8.69016259765625,0.2301344871520996,0.04769277572631836,0.09419643878936768
1732621176588198400,8.700198486328125,0.1915583610534668,0.012226581573486328,0.01838994026184082
1732621176598237200,8.7102373046875,0.11721467971801758,-0.02120685577392578,-0.04695844650268555
1732621176608279000,8.720279052734375,-0.016607284545898438,-0.053437232971191406,-0.13042211532592773
1732621176618323700,8.73032373046875,-0.2478022575378418,-0.09521961212158203,-0.13745033740997314
1732621176628371200,8.74037109375,-0.36421632766723633,-0.17621803283691406,-0.0036851167678833008
1732621176638420700,8.750420654296875,-0.28708410263061523,-0.16825294494628906,0.10068297386169434
1732621176648472300,8.760472412109374,-0.2117161750793457,-0.08571386337280273,0.08633661270141602
1732621176658525200,8.770525146484376,-0.26113224029541016,-0.020003795623779297,0.04022836685180664
1732621176668579000,8.7805791015625,-0.24586772918701172,0.0425257682800293,-0.020511269569396973
1732621176678633000,8.790633056640624,-0.14281320571899414,0.09320449829101562,-0.01083219051361084
1732621176688683300,8.800683349609375,-0.07931137084960938,0.06763744354248047,-0.10098135471343994
1732621176698724900,8.810724853515625,-0.07721948623657227,0.03877878189086914,-0.15197336673736572
1732621176708766200,8.82076611328125,0.01636791229248047,0.035893917083740234,-0.1392894983291626
1732621176718807300,8.830807373046875,0.12880849838256836,0.12386035919189453,0.06877076625823975
1732621176728848400,8.840848388671875,0.19792842864990234,0.1830434799194336,0.12315821647644043
1732621176738889500,8.850889404296876,0.18553686141967773,0.20803356170654297,0.22807908058166504
1732621176748930800,8.860930908203125,0.29095888137817383,0.09123754501342773,0.17021608352661133
1732621176758972000,8.870971923828124,0.23139715194702148,0.011036872863769531,-0.003627300262451172
1732621176769013000,8.881012939453125,-0.008959770202636719,-0.09463739395141602,-0.09064626693725586
1732621176779054300,8.891054443359375,-0.35935163497924805,-0.14779949188232422,-0.25148212909698486
1732621176789095700,8.901095703125,-0.3860130310058594,-0.08917617797851562,-0.22420591115951538
1732621176799137000,8.911136962890625,-0.056711673736572266,-0.0715022087097168,-0.12010669708251953
1732621176809178400,8.921178466796874,0.25691938400268555,0.04893064498901367,-0.07567882537841797
1732621176819220000,8.931219970703125,0.2548966407775879,0.15382146835327148,-0.13587045669555664
1732621176829261300,8.94126123046875,0.23436260223388672,0.10661029815673828,0.054226040840148926
1732621176839303000,8.951302978515624,0.29572010040283203,0.11349153518676758,-0.017293214797973633
1732621176849344500,8.961344482421875,0.3673887252807617,0.028130054473876953,-0.03584921360015869
1732621176859385900,8.9713857421875,0.3497896194458008,0.0022988319396972656,0.035370469093322754
1732621176869427000,8.981427001953126,0.290834903717041,0.029493331909179688,0.030297040939331055
1732621176879468500,8.991468505859375,0.16678714752197266,0.02793121337890625,-0.055329322814941406
1732621176889510100,9.00151025390625,0.0439295768737793,-0.007187843322753906,-0.07561731338500977
1732621176899551500,9.011551513671876,-0.011766433715820312,-0.023482322692871094,-0.05027413368225098
1732621176909593000,9.021593017578125,-0.0006442070007324219,-0.015850067138671875,0.011363029479980469
1732621176919634700,9.031634765625,0.053389549255371094,0.006356716156005859,0.0542834997177124
1732621176929676000,9.041676025390625,-0.015330791473388672,-0.03248023986816406,0.2574043273925781
1732621176939717400,9.05171728515625,-0.15851211547851562,0.037451744079589844,0.23095965385437012
1732621176949758500,9.061758544921876,-0.22475242614746094,0.01574993133544922,0.15348398685455322
1732621176959799600,9.071799560546875,-0.25774383544921875,-0.0018382072448730469,0.044596076011657715
1732621176969841000,9.0818408203125,-0.2059798240661621,-0.005757808685302734,0.05119514465332031
1732621176979882200,9.09188232421875,-0.1220855712890625,0.009082317352294922,0.08689653873443604
1732621176989923300,9.10192333984375,-0.11011886596679688,0.00022220611572265625,-0.01434326171875
1732621176999964700,9.111964599609376,-0.13143539428710938,-0.022687435150146484,-0.04352736473083496
1732621177010006000,9.122006103515625,-0.09117746353149414,-0.012224197387695312,-0.058313965797424316
1732621177020047000,9.132047119140625,-0.08945465087890625,-0.011485099792480469,-0.10148835182189941
1732621177030088400,9.14208837890625,-0.07388973236083984,0.017429828643798828,-0.1262754201889038
1732621177040129800,9.1521298828125,0.021367549896240234,0.017732620239257812,0.045618653297424316
1732621177050054400,9.162054443359375,0.06833457946777344,0.004056453704833984,0.17859101295471191
1732621177059988500,9.171988525390624,0.09623003005981445,-0.00892782211303711,0.15471363067626953
1732621177069935900,9.181935791015626,-0.03598976135253906,-0.06384038925170898,0.18015825748443604
1732621177079900000,9.19189990234375,-0.034193992614746094,-0.047295570373535156,0.012111902236938477
1732621177089882600,9.201882568359375,-0.11271476745605469,-0.09715557098388672,-0.09684252738952637
1732621177099886000,9.211885986328125,-0.14393281936645508,-0.04831218719482422,-0.16252684593200684
1732621177109908700,9.22190869140625,-0.1050405502319336,-0.0015125274658203125,-0.019609689712524414
1732621177119952600,9.23195263671875,-0.0012645721435546875,0.058030128479003906,0.041629791259765625
1732621177130012200,9.24201220703125,0.0962371826171875,0.08380365371704102,0.04993617534637451
1732621177140090400,9.25209033203125,0.15993928909301758,0.07705926895141602,0.10049021244049072
1732621177150180600,9.2621806640625,0.1577281951904297,0.038596153259277344,0.03751838207244873
1732621177160285000,9.272284912109376,0.03855466842651367,-0.007907390594482422,-0.004918456077575684
1732621177170395600,9.282395751953125,-0.10708284378051758,-0.0538640022277832,-0.02765023708343506
1732621177180514600,9.2925146484375,-0.1663651466369629,-0.08585453033447266,-0.0595858097076416
1732621177190633200,9.30263330078125,-0.10328435897827148,-0.05728292465209961,-0.15230345726013184
1732621177200753700,9.312753662109374,0.01001739501953125,-0.02493762969970703,-0.14534389972686768
1732621177210714600,9.322714599609375,0.060321807861328125,0.03534889221191406,0.02132546901702881
1732621177220683500,9.33268359375,-0.05455350875854492,0.03867673873901367,-0.0030901432037353516
1732621177230658300,9.342658203125,-0.09205007553100586,-0.0004138946533203125,-0.017353177070617676
1732621177240646100,9.352646240234375,0.022413253784179688,-0.03356313705444336,0.025485515594482422
1732621177250648600,9.362648681640625,0.14050531387329102,-0.07950973510742188,-0.016492605209350586
1732621177260666600,9.37266650390625,0.12064075469970703,-0.06267452239990234,-0.08644318580627441
1732621177270700500,9.382700439453124,-0.04531145095825195,-0.04637289047241211,-0.06660068035125732
1732621177280750000,9.39275,-0.14334487915039062,-0.059356689453125,-0.0478442907333374
1732621177290814200,9.402814208984376,-0.1177520751953125,-0.08680391311645508,-0.08594286441802979
1732621177300891400,9.412891357421875,-0.04570722579956055,-0.09044265747070312,-0.17081046104431152
1732621177310979800,9.422979736328125,0.010744571685791016,-0.06127309799194336,-0.05199384689331055
1732621177321077200,9.4330771484375,0.09462833404541016,0.019309043884277344,0.003826618194580078
1732621177331180500,9.4431806640625,0.1773843765258789,0.06108903884887695,0.07323241233825684
1732621177341287400,9.453287353515625,0.21691036224365234,0.05089998245239258,0.07583916187286377
1732621177351395300,9.463395263671876,0.14823627471923828,0.055830955505371094,-0.020085573196411133
1732621177361455900,9.473455810546875,0.029151439666748047,0.023416996002197266,-0.18581008911132812
1732621177371497000,9.4834970703125,-0.0316309928894043,0.0009112358093261719,-0.1189342737197876
1732621177381537800,9.493537841796876,-0.07269477844238281,-0.0023870468139648438,-0.04922974109649658
1732621177391578600,9.50357861328125,-0.08025932312011719,0.017710208892822266,0.03363907337188721
1732621177401619500,9.513619384765626,-0.09267377853393555,0.046515464782714844,0.0967717170715332
1732621177411660500,9.52366064453125,-0.09111833572387695,0.09321737289428711,0.14033794403076172
1732621177421701400,9.533701416015624,-0.04715728759765625,0.1154327392578125,0.10882306098937988
1732621177431742500,9.543742431640625,-0.04130983352661133,0.11857318878173828,0.13074779510498047
1732621177441783800,9.55378369140625,0.011985301971435547,0.041965484619140625,-0.007405996322631836
1732621177451825200,9.5638251953125,0.02305459976196289,0.04309272766113281,0.008005738258361816
1732621177461866500,9.573866455078125,-0.05031394958496094,0.011604785919189453,0.019669294357299805
1732621177471907800,9.583907958984375,-0.11340856552124023,0.022649288177490234,0.06874489784240723
1732621177481942000,9.59394189453125,-0.09619283676147461,0.0373692512512207,0.15433430671691895
1732621177491942100,9.603942138671876,0.0005769729614257812,0.04680013656616211,0.18227946758270264
1732621177501942000,9.61394189453125,0.049222469329833984,0.028353214263916016,0.05493974685668945
1732621177511942400,9.6239423828125,0.01755523681640625,0.0014257431030273438,-0.008942246437072754
1732621177521945000,9.633945068359376,0.0009169578552246094,-0.015249252319335938,0.003771066665649414
1732621177531951400,9.643951416015625,-0.0012674331665039062,-0.017421722412109375,-0.04519164562225342
1732621177541962500,9.65396240234375,0.005893707275390625,-0.03380250930786133,-0.0651240348815918
1732621177551979800,9.663979736328125,0.03144216537475586,-0.0642843246459961,-0.11371374130249023
1732621177562008300,9.67400830078125,0.0802774429321289,-0.07039594650268555,-0.10096466541290283
1732621177572047600,9.684047607421874,0.08163833618164062,-0.06648445129394531,-0.09782564640045166
1732621177582095000,9.69409521484375,0.026743412017822266,-0.0717010498046875,-0.13254833221435547
1732621177592149200,9.704149169921875,-0.07463598251342773,-0.07236194610595703,-0.06817817687988281
1732621177602208300,9.714208251953124,-0.06662654876708984,-0.05486726760864258,0.013803482055664062
1732621177612271600,9.724271728515625,-0.08290481567382812,-0.047760009765625,-0.023320913314819336
1732621177622337500,9.734337646484375,-0.1894087791442871,-0.051114559173583984,-0.07024681568145752
1732621177632405800,9.74440576171875,-0.11643314361572266,-0.0698404312133789,-0.060848355293273926
1732621177642479400,9.754479248046875,0.07286548614501953,-0.04141426086425781,-0.0892719030380249
1732621177652556000,9.76455615234375,0.14158010482788086,-0.027213573455810547,-0.03708446025848389
1732621177662576600,9.77457666015625,0.06808233261108398,-0.0035047531127929688,0.009383559226989746
1732621177672598000,9.784597900390626,-0.07042598724365234,0.0007104873657226562,-0.06302237510681152
1732621177682621000,9.794620849609375,-0.09401941299438477,-0.019182682037353516,-0.07314622402191162
1732621177692651000,9.804651123046876,-0.0795130729675293,0.0037059783935546875,-0.0691382884979248
1732621177702688300,9.814688232421876,0.06233072280883789,-0.0110931396484375,-0.06025803089141846
1732621177712727800,9.824727783203125,0.12202072143554688,0.035880088806152344,0.010008811950683594
1732621177722773500,9.8347734375,0.04404306411743164,0.07731008529663086,0.05551719665527344
1732621177732822500,9.844822509765624,-0.0657501220703125,0.0660247802734375,0.04400825500488281
1732621177742873300,9.854873291015625,-0.12237405776977539,0.035533905029296875,-0.0426180362701416
1732621177752925000,9.864925048828125,-0.046555519104003906,0.009814739227294922,-0.09018063545227051
1732621177762977000,9.87497705078125,0.047249794006347656,0.008487701416015625,-0.04719376564025879
1732621177773029400,9.885029296875,0.09306669235229492,0.04072380065917969,0.1092613935470581
1732621177783073000,9.895072998046874,0.0772695541381836,0.08680295944213867,0.1558154821395874
1732621177793114400,9.9051142578125,0.12328720092773438,0.10892772674560547,0.05067765712738037
1732621177803155700,9.91515576171875,0.09840869903564453,0.09359407424926758,-0.09040415287017822
1732621177813202000,9.925201904296875,0.07874393463134766,0.06462335586547852,-0.09801042079925537
1732621177823238700,9.93523876953125,0.0736532211303711,0.04574728012084961,0.021350741386413574
1732621177833280300,9.9452802734375,0.05951261520385742,0.022768497467041016,0.12944531440734863
1732621177843321300,9.9553212890625,0.0604395866394043,0.01010751724243164,0.21836113929748535
1732621177853367300,9.9653671875,-0.06585454940795898,0.05414295196533203,0.08931338787078857
1732621177863404000,9.975404052734374,-0.16754436492919922,0.1482224464416504,0.03236210346221924
1732621177873446000,9.98544580078125,-0.08488702774047852,-0.14190053939819336,-0.20358610153198242
1732621177883486700,9.99548681640625,0.03424358367919922,-0.1254410743713379,-0.2616027593612671
1732621177893532700,10.00553271484375,-0.012675762176513672,-0.08957147598266602,-0.016711831092834473
1732621177903569700,10.015569580078125,-0.09672927856445312,-0.03584861755371094,0.1683506965637207
1732621177913611500,10.025611572265625,-0.11437845230102539,-0.007480144500732422,0.16100358963012695
1732621177923652400,10.03565234375,0.018360137939453125,-0.008513450622558594,0.06856441497802734
1732621177933698000,10.045697998046874,0.0977315902709961,-0.018238067626953125,-0.05514264106750488
1732621177943748000,10.055748046875,0.08256912231445312,-0.0032892227172851562,-0.034511566162109375
1732621177953802200,10.06580224609375,-0.021464824676513672,0.011692523956298828,-0.008685708045959473
1732621177963859500,10.075859375,-0.11006927490234375,0.007095813751220703,0.03553891181945801
1732621177973919200,10.085919189453126,-0.08484792709350586,-0.002849578857421875,0.08797311782836914
1732621177983980500,10.09598046875,0.024808883666992188,0.006266593933105469,0.035950422286987305
1732621177994042600,10.106042724609376,0.04851961135864258,0.015934467315673828,0.018087387084960938
1732621178004103700,10.116103759765625,0.04879140853881836,0.030600547790527344,0.024760007858276367
1732621178014145000,10.12614501953125,0.049379825592041016,0.040616512298583984,-0.0343320369720459
1732621178024186400,10.136186279296876,-0.016139507293701172,0.022171497344970703,-0.046062350273132324
1732621178034227700,10.146227783203125,-0.06716251373291016,0.0033698081970214844,0.002820611000061035
1732621178044269000,10.15626904296875,-0.023679256439208984,-0.02039051055908203,0.045778632164001465
1732621178054310400,10.166310302734376,0.06151580810546875,-0.010849952697753906,0.07924032211303711
1732621178064351700,10.176351806640625,0.05648374557495117,0.017992019653320312,0.03771495819091797
1732621178074393000,10.18639306640625,-0.023394107818603516,0.013848304748535156,-0.05949068069458008
1732621178084434400,10.196434326171875,-0.017395496368408203,-0.013926029205322266,-0.13701891899108887
1732621178094475800,10.206475830078125,0.10613107681274414,0.019975662231445312,-0.12450706958770752
1732621178104517000,10.21651708984375,0.16655206680297852,0.025271892547607422,-0.05569922924041748
1732621178114558500,10.226558349609375,0.05138826370239258,0.016141414642333984,0.016152381896972656
1732621178124600000,10.23660009765625,-0.1001749038696289,-0.002997875213623047,0.10584867000579834
1732621178134641400,10.246641357421876,-0.12253618240356445,-0.022503376007080078,-0.003251194953918457
1732621178144682800,10.256682861328125,-0.04565286636352539,-0.04168367385864258,-0.05909371376037598
1732621178154724000,10.26672412109375,0.1198720932006836,-0.06478357315063477,-0.05754077434539795
1732621178164765400,10.276765380859375,0.17969274520874023,-0.01604175567626953,-0.06549680233001709
1732621178174806800,10.286806884765625,0.03605985641479492,0.04629945755004883,-0.012886524200439453
1732621178184848100,10.29684814453125,-0.044382572174072266,0.055307865142822266,0.06695246696472168
1732621178194889500,10.306889404296875,0.013161659240722656,0.03588676452636719,0.046749234199523926
1732621178204930800,10.316930908203124,0.07046937942504883,0.026966094970703125,0.13082551956176758
1732621178214972200,10.32697216796875,0.11351537704467773,0.05195426940917969,0.12479209899902344
1732621178225013500,10.337013427734375,0.10476827621459961,0.09136438369750977,0.03478515148162842
1732621178235054800,10.347054931640624,0.0774068832397461,0.09244155883789062,0.003279566764831543
1732621178245096200,10.35709619140625,0.050435543060302734,0.07449197769165039,0.034072041511535645
1732621178255137500,10.367137451171875,0.000518798828125,0.052272796630859375,-0.03436005115509033
1732621178265179000,10.377178955078126,-0.0345916748046875,0.025520801544189453,-0.030883431434631348
1732621178275100700,10.3871005859375,0.0016169548034667969,0.013484477996826172,0.028739452362060547
1732621178285032200,10.3970322265625,-0.023820877075195312,0.025487899780273438,0.04465126991271973
1732621178294977000,10.40697705078125,-0.025093555450439453,0.046835899353027344,0.01369786262512207
1732621178304939000,10.41693896484375,-0.007518291473388672,0.044167518615722656,-0.06804823875427246
1732621178314920200,10.426920166015625,-0.04694795608520508,0.03194141387939453,-0.09199321269989014
1732621178324922600,10.436922607421875,-0.0577692985534668,0.014897823333740234,-0.08750391006469727
1732621178334942500,10.4469423828125,-0.021581172943115234,-0.011584281921386719,-0.045471906661987305
1732621178344984300,10.456984375,0.04712390899658203,0.01426839828491211,0.029373764991760254
1732621178355047200,10.467047119140625,0.08224821090698242,0.03079080581665039,0.07523488998413086
1732621178365129500,10.47712939453125,0.06531095504760742,0.033297061920166016,0.01669466495513916
1732621178375228400,10.487228515625,0.03464031219482422,-0.0064296722412109375,-0.06955945491790771
1732621178385341400,10.497341552734374,0.0232696533203125,-0.06907367706298828,-0.10274660587310791
1732621178395465000,10.50746484375,-0.04488086700439453,-0.11226606369018555,-0.10740339756011963
1732621178405595100,10.51759521484375,-0.018660545349121094,-0.11333513259887695,-0.03729403018951416
1732621178415728400,10.527728271484374,0.06316232681274414,-0.09130716323852539,0.0029042959213256836
1732621178425841400,10.53784130859375,0.10117197036743164,-0.046070098876953125,0.11264729499816895
1732621178435882500,10.547882568359375,0.09653520584106445,-0.03895711898803711,0.04696547985076904
1732621178445923800,10.557923828125,0.035816192626953125,-0.03625345230102539,-0.07412803173065186
1732621178455965000,10.56796484375,-0.02869415283203125,-0.06189155578613281,-0.0758521556854248
1732621178466006000,10.578006103515625,-0.09740829467773438,-0.09244108200073242,-0.02581191062927246
1732621178476047000,10.588047119140626,-0.10467290878295898,-0.09045267105102539,-0.0008748769760131836
1732621178486088400,10.59808837890625,-0.056133270263671875,-0.07515859603881836,0.003779292106628418
1732621178496129500,10.608129638671874,0.03853940963745117,-0.06028556823730469,0.017614126205444336
1732621178506171000,10.6181708984375,0.0849299430847168,-0.0028743743896484375,-0.024851560592651367
1732621178516212200,10.628212158203125,0.027503490447998047,0.021287918090820312,-0.05720877647399902
1732621178526253600,10.638253662109374,-0.03838777542114258,0.007404327392578125,0.009634971618652344
1732621178536295200,10.648295166015625,0.0004634857177734375,-0.010958671569824219,-0.02356874942779541
1732621178546336800,10.658336669921875,0.04840517044067383,0.013803958892822266,-0.11311078071594238
1732621178556378000,10.668378173828126,0.048516273498535156,0.010098934173583984,-0.08881962299346924
1732621178566419700,10.678419677734375,-0.1067953109741211,0.025300025939941406,-0.05049097537994385
1732621178576461300,10.68846142578125,-0.2505946159362793,-0.007558345794677734,-0.11567342281341553
1732621178586453500,10.69845361328125,-0.246551513671875,-0.04056358337402344,-0.014803290367126465
1732621178596449500,10.708449462890625,0.011925220489501953,-0.07759904861450195,-0.024065852165222168
1732621178606451200,10.718451171875,0.23410749435424805,-0.051682472229003906,0.009466409683227539
1732621178616460000,10.7284599609375,0.16605424880981445,0.012393474578857422,0.03809535503387451
1732621178626476500,10.7384765625,-0.014245986938476562,0.04686164855957031,-0.023775219917297363
1732621178636502000,10.748501953125,-0.08869647979736328,0.023464679718017578,-0.06669771671295166
1732621178646536200,10.7585361328125,-0.01617717742919922,-0.018627166748046875,-0.07664370536804199
1732621178656579300,10.768579345703126,0.09336423873901367,-0.021863937377929688,0.004014253616333008
1732621178666631000,10.778630859375,0.12633562088012695,0.022539138793945312,0.09895205497741699
1732621178676690400,10.7886904296875,0.11182785034179688,0.09456872940063477,0.09402430057525635
1732621178686756400,10.79875634765625,-0.015627384185791016,0.024121761322021484,0.055019259452819824
1732621178696827600,10.80882763671875,0.08944511413574219,0.015506744384765625,-0.01581859588623047
1732621178706903000,10.818903076171875,0.12742233276367188,-0.044098854064941406,-0.014740824699401855
1732621178716981000,10.82898095703125,0.009662151336669922,-0.09755563735961914,-0.04683327674865723
1732621178727060000,10.83906005859375,-0.0924220085144043,-0.06100893020629883,-0.08828878402709961
1732621178737123800,10.849123779296875,-0.15605592727661133,-0.0542607307434082,-0.05459725856781006
1732621178747165400,10.85916552734375,-0.14423322677612305,-0.015678882598876953,-0.05971658229827881
1732621178757206800,10.869206787109375,-0.1380295753479004,0.021474361419677734,-0.027226805686950684
1732621178767248100,10.879248046875,-0.1797504425048828,0.057233333587646484,0.03275561332702637
1732621178777289500,10.88928955078125,-0.10350704193115234,0.035242557525634766,0.10610365867614746
1732621178787330000,10.899330078125,0.018801212310791016,-0.005093574523925781,0.1130293607711792
1732621178797371000,10.909370849609376,0.06440448760986328,-0.020526885986328125,0.017028212547302246
1732621178807411500,10.919411376953125,0.043766021728515625,-0.011682510375976562,-0.08161914348602295
1732621178817452300,10.929452392578124,0.01877117156982422,0.0018372535705566406,-0.12267935276031494
1732621178827493400,10.939493408203125,0.02214336395263672,0.024290084838867188,-0.1071023941040039
1732621178837417500,10.94941748046875,0.058426856994628906,0.03698110580444336,-0.04495370388031006
1732621178847351300,10.959351318359374,0.10390663146972656,0.026363372802734375,0.025427579879760742
1732621178857298400,10.96929833984375,0.13998794555664062,0.0498199462890625,0.06621479988098145
1732621178867262200,10.97926220703125,0.13387441635131836,0.0548853874206543,0.031403183937072754
1732621178877245000,10.989244873046875,0.048270225524902344,0.022774696350097656,0.025254011154174805
1732621178887243800,10.999243896484375,-0.007649898529052734,-0.018285751342773438,0.0666346549987793
1732621178897264000,11.00926416015625,-0.04406118392944336,-0.0495448112487793,-0.019875526428222656
1732621178907306200,11.01930615234375,-0.07558059692382812,-0.08073186874389648,0.026743650436401367
1732621178917369000,11.029369140625,-0.07410526275634766,-0.03657341003417969,-0.04535830020904541
1732621178927451100,11.039451171875,-0.04954051971435547,-0.0029935836791992188,-0.046098947525024414
1732621178937549800,11.0495498046875,-0.011467933654785156,0.043938636779785156,0.00013554096221923828
1732621178947662300,11.059662353515625,-0.006974697113037109,0.033532142639160156,-0.001143813133239746
1732621178957785000,11.06978515625,0.0022459030151367188,0.02808856964111328,-0.011669397354125977
1732621178967914800,11.079914794921875,-0.016875267028808594,0.027614116668701172,0.010498642921447754
1732621178978047000,11.090046875,0.05880594253540039,0.03218269348144531,0.027439236640930176
1732621178988158500,11.100158447265626,0.15748834609985352,0.07501077651977539,0.06390047073364258
1732621178998199800,11.11019970703125,0.18923234939575195,0.051859378814697266,0.07659041881561279
1732621179008241200,11.1202412109375,0.042111873626708984,0.06764507293701172,0.027370214462280273
1732621179018282500,11.130282470703126,-0.18313169479370117,-0.011630058288574219,0.04505181312561035
1732621179028323800,11.14032373046875,-0.28327035903930664,-0.07684707641601562,0.006456732749938965
1732621179038365200,11.150365234375,-0.05253887176513672,-0.10865306854248047,-0.036235690116882324
1732621179048406300,11.16040625,0.174774169921875,-0.06874322891235352,-0.012435436248779297
1732621179058447600,11.170447509765625,0.13016986846923828,0.032276153564453125,0.057682156562805176
1732621179068488700,11.18048876953125,-0.05077695846557617,0.09813499450683594,0.08875787258148193
1732621179078530000,11.190530029296875,-0.06910419464111328,0.06328868865966797,0.03461289405822754
1732621179088537300,11.200537353515625,0.06389951705932617,0.010499954223632812,-0.013983368873596191
1732621179098547200,11.210547119140625,0.15814590454101562,0.0022611618041992188,-0.05679762363433838
1732621179108561200,11.22056103515625,0.09633398056030273,0.04236412048339844,0.028465747833251953
1732621179118579700,11.230579833984375,0.040172576904296875,0.10522079467773438,0.0983572006225586
1732621179128604000,11.24060400390625,0.06476497650146484,0.11490726470947266,0.11991345882415771
1732621179138634200,11.25063427734375,0.10329532623291016,0.06338644027709961,-0.014076709747314453
1732621179148670700,11.260670654296876,0.08520317077636719,0.022836685180664062,-0.04251730442047119
1732621179158713000,11.270713134765625,0.006946086883544922,0.007420063018798828,0.018988966941833496
1732621179168761600,11.28076171875,-0.07463788986206055,0.01118612289428711,0.08425819873809814
1732621179178815500,11.2908154296875,-0.056073665618896484,-0.013640403747558594,0.17258572578430176
1732621179188873700,11.300873779296875,-0.0663447380065918,-0.01956319808959961,0.052500367164611816
1732621179198936000,11.31093603515625,-0.0861811637878418,-0.07763051986694336,0.061974287033081055
1732621179209001000,11.3210009765625,-0.1438140869140625,-0.017518043518066406,-0.003718733787536621
1732621179219068000,11.33106787109375,-0.14971160888671875,-0.03965282440185547,0.01618194580078125
1732621179229135400,11.34113525390625,-0.0480799674987793,-0.0483098030090332,0.035506606101989746
1732621179239192800,11.35119287109375,0.023444652557373047,-0.06644678115844727,0.03585553169250488
1732621179249234200,11.361234130859375,-0.00019979476928710938,-0.04632854461669922,-0.015511631965637207
1732621179259275500,11.371275634765626,-0.07049369812011719,-0.031167030334472656,-0.09435689449310303
1732621179269316900,11.38131689453125,-0.11649847030639648,-0.04023313522338867,-0.06874644756317139
1732621179279358000,11.39135791015625,-0.053662776947021484,-0.044701576232910156,-0.010932087898254395
1732621179289399000,11.40139892578125,0.03657388687133789,-0.044205665588378906,0.04609537124633789
1732621179299440000,11.411440185546875,0.07875967025756836,-0.03375101089477539,0.11692821979522705
1732621179309481500,11.4214814453125,0.059415340423583984,-0.013706684112548828,0.06019413471221924
1732621179319522600,11.4315224609375,0.016835689544677734,0.010758399963378906,-0.014704108238220215
1732621179329445600,11.441445556640625,0.007497310638427734,-0.003253936767578125,-0.0184633731842041
1732621179339378000,11.4513779296875,0.045426368713378906,-0.017055511474609375,-0.0597153902053833
1732621179349323800,11.46132373046875,0.021725177764892578,-0.025649070739746094,-0.0766146183013916
1732621179359286500,11.47128662109375,-0.005877017974853516,-0.01014566421508789,0.015598416328430176
1732621179369268200,11.481268310546875,-0.028173446655273438,-0.018299102783203125,-0.016211748123168945
1732621179379271000,11.49127099609375,-0.10242462158203125,-0.007857322692871094,0.007881522178649902
1732621179389295400,11.50129541015625,-0.07274675369262695,0.020312786102294922,0.007074713706970215
1732621179399341000,11.511341064453125,-0.01570415496826172,0.042877197265625,0.020147323608398438
1732621179409407000,11.521406982421874,-0.0019140243530273438,0.06046295166015625,-0.004652857780456543
1732621179419491300,11.5314912109375,-0.006850242614746094,0.040479183197021484,-0.05265355110168457
1732621179429592000,11.541592041015624,0.017051219940185547,0.0589442253112793,-0.04250681400299072
1732621179439705900,11.551705810546874,0.059775352478027344,-0.0026273727416992188,0.015016674995422363
1732621179449829000,11.5618291015625,0.003222942352294922,-0.0154876708984375,0.018917202949523926
1732621179459958500,11.57195849609375,-0.14664030075073242,-0.018812179565429688,0.07023441791534424
1732621179470090000,11.582090087890625,-0.2098703384399414,-0.04658317565917969,0.04634284973144531
1732621179480185300,11.592185302734375,-0.12638330459594727,-0.0509190559387207,0.009542107582092285
1732621179490227000,11.60222705078125,0.12578725814819336,-0.08305740356445312,0.03552603721618652
1732621179500151300,11.6121513671875,0.1581130027770996,-0.042725563049316406,-0.014453768730163574
1732621179510084900,11.6220849609375,0.0017862319946289062,0.002166271209716797,0.00627291202545166
1732621179520031500,11.632031494140625,-0.11946678161621094,0.012839794158935547,-0.01160740852355957
1732621179529994200,11.641994140625,-0.15003156661987305,-0.04812192916870117,-0.08682787418365479
1732621179539976000,11.651975830078126,-0.07252359390258789,-0.07110834121704102,-0.03471481800079346
1732621179549974300,11.661974365234375,0.07425785064697266,-0.018423080444335938,0.06818342208862305
1732621179559994400,11.671994384765625,0.1343860626220703,0.04802703857421875,0.14215457439422607
1732621179570031400,11.68203125,0.14730215072631836,0.08584833145141602,0.14127516746520996
1732621179580089600,11.692089599609375,0.11380624771118164,0.07210159301757812,0.028384089469909668
1732621179590162700,11.70216259765625,0.0766439437866211,0.026123523712158203,0.04485678672790527
1732621179600253400,11.71225341796875,0.0026154518127441406,-0.004635810852050781,-0.03363215923309326
1732621179610354700,11.722354736328125,-0.0563502311706543,-0.025681018829345703,-0.1539837121963501
1732621179620468500,11.732468505859375,-0.011229991912841797,0.005015373229980469,-0.15569573640823364
1732621179630586000,11.742586181640625,0.08044195175170898,0.0022897720336914062,-0.019823431968688965
1732621179640709600,11.752709716796875,0.024978160858154297,-0.013927459716796875,-0.0468982458114624
1732621179650768600,11.7627685546875,-0.03400850296020508,0.008145332336425781,-0.06422781944274902
1732621179660831700,11.772831787109375,-0.021277904510498047,-0.031470298767089844,0.07984960079193115
1732621179670851600,11.7828515625,-0.046526432037353516,-0.06123781204223633,0.048076510429382324
1732621179680876800,11.792876708984375,0.003623485565185547,-0.0911097526550293,-0.005918145179748535
1732621179690908200,11.802908203125,-0.055820465087890625,-0.09727191925048828,-0.14454829692840576
1732621179700945700,11.812945556640624,-0.14809846878051758,-0.07110023498535156,-0.15982931852340698
1732621179710989300,11.8229892578125,-0.1499953269958496,0.024587154388427734,-0.14228039979934692
1732621179721038800,11.833038818359375,-0.08127117156982422,0.03851318359375,-0.007324099540710449
1732621179731093500,11.843093505859375,-0.046469688415527344,0.0711526870727539,-0.015145301818847656
1732621179741152500,11.853152587890625,-0.0403141975402832,0.06580686569213867,-0.004057645797729492
1732621179751215400,11.86321533203125,-0.04381704330444336,0.055760860443115234,0.05348563194274902
1732621179761280500,11.873280517578126,-0.04212665557861328,0.05574369430541992,0.05860602855682373
1732621179771347500,11.883347412109375,-0.03528451919555664,0.05621004104614258,0.03577601909637451
1732621179781414700,11.89341455078125,0.01888895034790039,0.06163930892944336,-0.037689208984375
1732621179791468000,11.903468017578126,0.03000164031982422,0.0813913345336914,-0.08633112907409668
1732621179801509400,11.91350927734375,0.055047035217285156,0.08190107345581055,-0.044328927993774414
1732621179811550700,11.92355078125,0.09361839294433594,0.049211978912353516,-0.07374823093414307
1732621179821591800,11.933591796875,0.1459355354309082,0.003315448760986328,-0.06075620651245117
1732621179831633000,11.9436328125,0.11780261993408203,-0.06944417953491211,0.013039469718933105
1732621179841674000,11.953674072265626,-0.03694009780883789,-0.11252069473266602,0.0004553794860839844
1732621179851715000,11.963715087890625,-0.10012531280517578,-0.12246084213256836,-0.03587973117828369
1732621179861756400,11.97375634765625,-0.05440235137939453,-0.1468949317932129,-0.06255662441253662
1732621179871797500,11.983797607421875,-0.06621837615966797,-0.13347864151000977,-0.05605959892272949
1732621179881838600,11.993838623046875,-0.059139251708984375,-0.08753204345703125,-0.13885635137557983
1732621179891880000,12.0038798828125,-0.02915668487548828,-0.07598161697387695,-0.1259118914604187
1732621179901921300,12.01392138671875,-0.02386760711669922,-0.08403301239013672,-0.10965710878372192
1732621179911943000,12.02394287109375,-0.1319413185119629,-0.0025320053100585938,-0.05693161487579346
1732621179921942000,12.03394189453125,-0.2058863639831543,-0.10216236114501953,-0.05702531337738037
1732621179931926500,12.043926513671876,-0.09517717361450195,-0.09233474731445312,-0.03239929676055908
1732621179941913300,12.053913330078124,0.07055807113647461,-0.10117006301879883,-0.021967291831970215
1732621179951904500,12.063904541015624,0.16822290420532227,-0.1092076301574707,0.01727926731109619
1732621179961902000,12.073902099609375,0.0054950714111328125,-0.05535078048706055,-0.024879932403564453
1732621179971907300,12.0839072265625,-0.16954374313354492,-0.022186279296875,-0.0905306339263916
1732621179981921300,12.09392138671875,-0.1636972427368164,-0.009486198425292969,-0.11853843927383423
1732621179991945000,12.103945068359375,-0.017034053802490234,0.007319450378417969,-0.0571979284286499
1732621180001981700,12.113981689453125,0.14194393157958984,0.04806232452392578,-0.005802512168884277
1732621180012029000,12.12402880859375,0.20978403091430664,0.07972526550292969,0.04591560363769531
1732621180022085400,12.13408544921875,0.1785421371459961,0.10246133804321289,0.00812673568725586
1732621180032149500,12.1441494140625,0.07771730422973633,0.07831192016601562,-0.019234180450439453
1732621180042220500,12.154220458984375,-0.016507625579833984,0.02174520492553711,-0.012609243392944336
1732621180052296700,12.164296630859376,-0.1139369010925293,-0.024476051330566406,-0.08181089162826538
1732621180062376400,12.17437646484375,-0.11138248443603516,-0.04220104217529297,-0.12244731187820435
1732621180072462600,12.184462646484375,-0.010246753692626953,-0.012824535369873047,-0.07327783107757568
1732621180082551600,12.194551513671875,0.013913631439208984,0.011430740356445312,-0.015347599983215332
1732621180092615400,12.204615478515626,-0.03786182403564453,-0.01669931411743164,-0.06689661741256714
1732621180102630000,12.2146298828125,-0.0512089729309082,-0.03505420684814453,-0.12248396873474121
1732621180112649700,12.224649658203125,-0.036090850830078125,-0.05314016342163086,-0.05931830406188965
1732621180122676200,12.23467626953125,-0.007279872894287109,-0.052326202392578125,-0.015905141830444336
1732621180132709400,12.24470947265625,-0.02135944366455078,-0.0845346450805664,-0.04847264289855957
1732621180142749200,12.254749267578125,-0.09218883514404297,-0.07428932189941406,-0.09495747089385986
1732621180152794400,12.26479443359375,-0.12505006790161133,-0.027460098266601562,-0.11796551942825317
1732621180162842000,12.274842041015624,-0.049669742584228516,0.0037364959716796875,-0.02792978286743164
1732621180172891100,12.28489111328125,0.062281131744384766,0.025037765502929688,0.004822432994842529
1732621180182941200,12.294941162109374,0.09300518035888672,0.009072303771972656,-0.09434330463409424
1732621180192991500,12.304991455078126,0.06269359588623047,-0.005677223205566406,-0.1029558777809143
1732621180203041800,12.315041748046875,0.01908254623413086,0.01312255859375,-0.045063912868499756
1732621180213085200,12.325085205078125,-0.03334617614746094,0.00789499282836914,-0.044591307640075684
1732621180223126800,12.335126708984374,-0.08069658279418945,0.002173900604248047,-0.006552636623382568
1732621180233168100,12.345168212890625,-0.05733680725097656,0.014653205871582031,0.029951095581054688
1732621180243209200,12.355209228515625,0.021938323974609375,0.022015094757080078,0.05127215385437012
1732621180253255400,12.36525537109375,0.05318880081176758,0.029714107513427734,0.029982686042785645
1732621180263293200,12.375293212890625,0.028044700622558594,0.01439046859741211,0.009792447090148926
1732621180273335600,12.38533544921875,-0.0010199546813964844,0.004369258880615234,-0.03296470642089844
1732621180283374600,12.39537451171875,-0.05330991744995117,-0.010321617126464844,-0.10363268852233887
1732621180293418500,12.40541845703125,-0.0581364631652832,-0.020575523376464844,-0.08891546726226807
1732621180303457500,12.41545751953125,-0.03984546661376953,-0.040618896484375,-0.07019102573394775
1732621180313501200,12.425501220703126,0.006329536437988281,-0.02271747589111328,-0.028302431106567383
