time,seconds_elapsed,z,y,x
1732621168032689400,0.144689453125,-0.9688294529914856,-0.38441595435142517,-0.49932798743247986
1732621168042718700,0.15471875,-0.904915452003479,-0.3268933892250061,-0.8125064969062805
1732621168052757000,0.164757080078125,-0.8058487772941589,-0.3066539466381073,-1.0363385677337646
1732621168062804200,0.17480419921875,-0.7227606177330017,-0.2842840552330017,-1.1045135259628296
1732621168072859600,0.184859619140625,-0.6609770655632019,-0.32156720757484436,-1.0191617012023926
1732621168082922200,0.194922119140625,-0.6130415797233582,-0.4153077304363251,-0.8465939164161682
1732621168092991000,0.204990966796875,-0.5896064639091492,-0.5580489635467529,-0.6495258212089539
1732621168103064600,0.215064697265625,-0.5970631241798401,-0.7508561015129089,-0.4940018057823181
1732621168113141500,0.2251416015625,-0.6481943130493164,-0.8520532846450806,-0.3555215299129486
1732621168123220200,0.23522021484375,-0.7387390732765198,-0.810509204864502,-0.1968017965555191
1732621168133304000,0.245303955078125,-0.8484581112861633,-0.8137048482894897,-0.05938674136996269
1732621168143346000,0.255345947265625,-1.0061125755310059,-0.8808145523071289,0.06098458915948868
1732621168153392600,0.265392578125,-1.1605713367462158,-0.9788159728050232,0.17709499597549438
1732621168163430000,0.275429931640625,-1.2521814107894897,-1.0672303438186646,0.25485700368881226
1732621168173472000,0.285471923828125,-1.2777470350265503,-1.0448604822158813,0.2825530469417572
1732621168183513300,0.295513427734375,-1.2638989686965942,-0.9255543351173401,0.28574874997138977
1732621168193559300,0.305559326171875,-1.2308768033981323,-0.8392704725265503,0.27616167068481445
1732621168203594500,0.315594482421875,-1.1584409475326538,-0.8126396536827087,0.2729659676551819
1732621168213629700,0.325629638671875,-1.033808708190918,-0.7870740294456482,0.29000967741012573
1732621168223665700,0.335665771484375,-0.8772193789482117,-0.7061163187026978,0.34220612049102783
1732621168233707000,0.34570703125,-0.750456690788269,-0.6890726089477539,0.38375020027160645
1732621168243753500,0.35575341796875,-0.7014559507369995,-0.7274209856987,0.39546775817871094
1732621168253804800,0.3658046875,-0.6002588272094727,-0.7966611385345459,0.25379177927970886
1732621168263843300,0.37584326171875,-0.19440503418445587,-0.6720288991928101,-0.10519175976514816
1732621168273881600,0.385881591796875,-0.2252967804670334,0.37083426117897034,0.19520394504070282
1732621168283925000,0.395925048828125,-0.33714625239372253,0.13861344754695892,0.4977301359176636
1732621168293973200,0.40597314453125,-0.5161054134368896,-0.20332635939121246,0.7608426809310913
1732621168304025600,0.416025634765625,-0.8399362564086914,-0.3364804685115814,0.9280842542648315
1732621168314081800,0.426081787109375,-1.0561785697937012,-0.5473966002464294,0.9344756603240967
1732621168324140500,0.436140625,-1.2085068225860596,-0.742334246635437,0.8961272835731506
1732621168334199800,0.44619970703125,-1.2894645929336548,-1.0160990953445435,0.8609746098518372
1732621168344260600,0.456260498046875,-1.3608351945877075,-1.36443030834198,0.8151695728302002
1732621168354321700,0.46632177734375,-1.3917269706726074,-1.3889306783676147,0.7725602388381958
1732621168364377000,0.476377197265625,-1.3086388111114502,-1.2046453952789307,0.7043853402137756
1732621168374418000,0.48641796875,-1.3139649629592896,-0.8840102553367615,0.6159709692001343
1732621168384459000,0.496458984375,-1.4865326881408691,-0.41743817925453186,0.5499265193939209
1732621168394499800,0.506499755859375,-1.6527090072631836,-0.1362166702747345,0.45725128054618835
1732621168404540700,0.516540771484375,-1.6303391456604004,-0.06910699605941772,0.41783764958381653
1732621168414581800,0.526581787109375,-1.4716193675994873,-0.8371400237083435,0.7651036381721497
1732621168424622800,0.536622802734375,-1.38853120803833,-0.703985869884491,0.9429975152015686
1732621168434546700,0.546546630859375,-1.1307448148727417,-0.611310601234436,0.8130391240119934
1732621168444480000,0.55647998046875,-0.7643046975135803,-0.8584446907043457,0.7129071950912476
1732621168454426600,0.566426513671875,-0.5267577171325684,-0.8808145523071289,0.44766417145729065
1732621168464385300,0.57638525390625,-0.4383433759212494,-0.6326152682304382,0.22076953947544098
1732621168474363400,0.58636328125,-0.6066502332687378,-0.6752246022224426,0.0034620072692632675
1732621168484362800,0.59636279296875,-1.012503981590271,-1.1716232299804688,-0.23728065192699432
1732621168494384000,0.606384033203125,-1.0306129455566406,-1.5455199480056763,-0.09773512929677963
1732621168504427500,0.616427490234375,-1.3555090427398682,-1.7308704853057861,0.03541899845004082
1732621168514492200,0.6264921875,-1.658035159111023,-1.6328691244125366,0.111050546169281
1732621168524575700,0.63657568359375,-1.786928415298462,-1.4634970426559448,0.2090519815683365
1732621168534676200,0.64667626953125,-1.725144863128662,-1.3154296875,0.5541874766349792
1732621168544790500,0.65679052734375,-1.487597942352295,-1.2717550992965698,0.8141043186187744
1732621168554915000,0.6669150390625,-1.2830731868743896,-1.385735034942627,0.9696283340454102
1732621168565046300,0.67704638671875,-1.1765499114990234,-1.5891945362091064,0.9994548559188843
1732621168575180300,0.68718017578125,-1.14139723777771,-1.6882611513137817,0.9131709933280945
1732621168585167000,0.6971669921875,-1.380009412765503,-1.523150086402893,0.6212971806526184
1732621168595161000,0.7071611328125,-1.658035159111023,-1.231276273727417,0.19094301760196686
1732621168605163800,0.717163818359375,-1.8039721250534058,-0.9628375172615051,-0.30865126848220825
1732621168615171000,0.727171142578125,-1.914756417274475,-0.9479242563247681,-0.7698971629142761
1732621168625189600,0.737189697265625,-1.9989097118377686,-1.2440589666366577,-1.1109049320220947
1732621168635219500,0.747219482421875,-2.0447146892547607,-1.6754783391952515,-1.307973027229309
1732621168645260800,0.7572607421875,-2.094780683517456,-1.974808931350708,-1.3516474962234497
1732621168655313200,0.767313232421875,-2.390915632247925,-1.8746769428253174,-1.3122339248657227
1732621168665371000,0.777370849609375,-2.871335506439209,-1.708500623703003,-1.2579070329666138
1732621168675437800,0.787437744140625,-3.128056764602661,-1.8341981172561646,-1.0544475317001343
1732621168685507800,0.7975078125,-3.227123498916626,-1.9076992273330688,-0.6111774444580078
1732621168695584300,0.807584228515625,-3.2995593547821045,-1.6222167015075684,0.13448566198349
1732621168705665800,0.817665771484375,-3.287841796875,-1.1982539892196655,0.5840139985084534
1732621168715750400,0.82775048828125,-3.0375120639801025,-0.7295514941215515,1.2306104898452759
1732621168725836300,0.837836181640625,-2.7765297889709473,-0.49413496255874634,2.059361696243286
1732621168735788000,0.8477880859375,-2.69344162940979,-0.24380521476268768,2.602630615234375
1732621168745748000,0.857748046875,-3.0470991134643555,0.15672241151332855,2.621804714202881
1732621168755719400,0.867719482421875,-3.259080410003662,0.5350132584571838,2.6622836589813232
1732621168765699300,0.87769921875,-3.539369821548462,1.0804126262664795,2.7230019569396973
1732621168775693300,0.887693359375,-3.5841095447540283,1.4734835624694824,2.8380470275878906
1732621168785704200,0.8977041015625,-3.3453643321990967,1.5725502967834473,2.8252642154693604
1732621168795732700,0.907732666015625,-3.1024911403656006,1.3925259113311768,2.5163466930389404
1732621168805778400,0.9177783203125,-2.398372173309326,0.648993194103241,1.4255480766296387
1732621168815836200,0.927836181640625,-2.141650915145874,-1.0214253664016724,-0.4396749436855316
1732621168825909200,0.9379091796875,-1.7741456031799316,-1.771349310874939,-0.9392692446708679
1732621168835991000,0.947990966796875,-1.2266157865524292,-1.3367342948913574,-0.9627043604850769
1732621168846084400,0.95808447265625,-0.9347419738769531,-0.5399399995803833,-0.6207645535469055
1732621168856187000,0.968186767578125,-1.0529828071594238,-0.19693495333194733,0.2292914092540741
1732621168866290700,0.978290771484375,-1.29585599899292,-0.3503285050392151,0.7832126021385193
1732621168876398300,0.9883984375,-1.1786803007125854,-0.7433995008468628,1.129413366317749
1732621168886506800,0.9985068359375,-0.9794817566871643,-0.765769362449646,1.2050448656082153
1732621168896569600,1.008569580078125,-0.8473928570747375,-0.6145063042640686,1.037803292274475
1732621168906611000,1.01861083984375,-0.7259563207626343,-0.3513937294483185,0.6809502243995667
1732621168916533800,1.02853369140625,-0.6716294288635254,-0.040345702320337296,0.30705341696739197
1732621168926465800,1.0384658203125,-0.6300853490829468,0.13328728079795837,-0.07430000603199005
1732621168936411400,1.048411376953125,-0.48414841294288635,0.010785484686493874,-0.4758928418159485
1732621168946374000,1.058373779296875,-0.29134124517440796,-0.587875485420227,-0.9520519971847534
1732621168956355300,1.068355224609375,-0.013315413147211075,-1.3441909551620483,-1.579607367515564
1732621168966357800,1.078357666015625,0.5363448262214661,-2.241117238998413,-2.5340561866760254
1732621168976382000,1.0883818359375,0.8569799661636353,-1.9449822902679443,-3.0048892498016357
1732621168986427400,1.098427490234375,0.7089125514030457,-0.7402037978172302,-3.2541537284851074
1732621168996493300,1.108493408203125,0.394668847322464,0.04274247586727142,-3.3883731365203857
1732621169006577700,1.11857763671875,0.1720351278781891,0.31544211506843567,-3.3106110095977783
1732621169016678400,1.128678466796875,-0.022902509197592735,0.08322133123874664,-2.821669101715088
1732621169026792000,1.1387919921875,-0.37869033217430115,-1.0661650896072388,-2.016352891921997
1732621169036915500,1.14891552734375,-0.6503247618675232,-2.086658239364624,-1.2749507427215576
1732621169047044900,1.159044921875,-0.5406057834625244,-2.301835298538208,-0.5430025458335876
1732621169057176600,1.169176513671875,-0.30412402749061584,-2.0291357040405273,0.34966275095939636
1732621169067153200,1.179153076171875,0.09001219272613525,-1.890655517578125,1.252980351448059
1732621169077137000,1.189136962890625,0.5352795720100403,-1.3963873386383057,1.950708031654358
1732621169087125200,1.199125244140625,0.7898702621459961,-0.8073135018348694,2.372540235519409
1732621169097125000,1.209125,1.0306129455566406,-0.4760259985923767,2.5397818088531494
1732621169107137300,1.21913720703125,1.2608364820480347,-0.5367442965507507,2.526998996734619
1732621169117163000,1.2291630859375,1.3854687213897705,-0.3268933892250061,2.425801992416382
1732621169127201800,1.239201904296875,1.450447916984558,-1.2930597066879272,1.1848053932189941
1732621169137253600,1.249253662109375,0.651390016078949,-2.120745897293091,-0.8412677645683289
1732621169147317200,1.259317138671875,-0.16244803369045258,-1.6999787092208862,-1.017031192779541
1732621169157391400,1.269391357421875,0.13581721484661102,-1.2078410387039185,-0.48121902346611023
1732621169167469800,1.2794697265625,0.1283605843782425,-0.46963462233543396,0.005592473316937685
1732621169177555500,1.289555419921875,-0.3286243975162506,-0.15006470680236816,0.24207420647144318
1732621169187646200,1.299646240234375,-0.6652380228042603,-0.46111273765563965,0.4519250988960266
1732621169197739800,1.30973974609375,-0.6226286888122559,-1.3303428888320923,0.9216928482055664
1732621169207834000,1.319834228515625,-0.4575175940990448,-1.9758740663528442,1.7579008340835571
1732621169217775900,1.32977587890625,-0.3754946291446686,-2.6597537994384766,2.954157590866089
1732621169227726000,1.33972607421875,-0.38934266567230225,-3.7878353595733643,4.407268524169922
1732621169237688600,1.3496884765625,-0.5491276383399963,-5.244142055511475,5.936943054199219
1732621169247665400,1.35966552734375,-0.8292838931083679,-6.683271884918213,7.253571033477783
1732621169257659100,1.3696591796875,-1.0849398374557495,-7.552502155303955,8.165410995483398
1732621169267670500,1.37967041015625,-1.241529107093811,-7.624938011169434,8.61294174194336
1732621169277700600,1.38970068359375,-1.3736180067062378,-6.99538516998291,8.51494026184082
1732621169287748600,1.39974853515625,-1.4385972023010254,-6.052654266357422,7.846905708312988
1732621169297813800,1.409813720703125,-1.3927922248840332,-5.175967216491699,6.725215435028076
1732621169307894500,1.41989453125,-1.3512481451034546,-4.122318744659424,5.525763034820557
1732621169317988400,1.42998828125,-1.3874660730361938,-2.934583902359009,4.518052577972412
1732621169328093000,1.440093017578125,-1.4162273406982422,-1.855502724647522,3.695692777633667
1732621169338205200,1.450205078125,-1.4247491359710693,-1.1673622131347656,3.0734636783599854
1732621169348321800,1.46032177734375,-1.204245924949646,-0.6443328261375427,2.6654794216156006
1732621169358440000,1.47043994140625,-0.7611089944839478,-0.23634858429431915,2.326735258102417
1732621169368514600,1.4805146484375,-0.418103963136673,-0.054193731397390366,2.0487093925476074
1732621169378555600,1.4905556640625,-0.34460288286209106,-0.1553908735513687,1.9315338134765625
1732621169388477000,1.500476806640625,-0.5374100804328918,-0.43874284625053406,1.912359595298767
1732621169398407700,1.51040771484375,-0.8612409234046936,-0.6390066742897034,1.8953158855438232
1732621169408352300,1.520352294921875,-1.073222279548645,-0.7402037978172302,1.8345975875854492
1732621169418313700,1.530313720703125,-1.1296796798706055,-0.5314181447029114,1.690791130065918
1732621169428294700,1.540294677734375,-1.0306129455566406,-0.054193731397390366,1.4021129608154297
1732621169438296800,1.550296875,-0.843131959438324,0.4581833481788635,1.0133029222488403
1732621169448320800,1.56032080078125,-0.7184996604919434,0.8055824637413025,0.5701659917831421
1732621169458366200,1.5703662109375,-0.6077154278755188,0.9270190596580505,0.20585627853870392
1732621169468432600,1.5804326171875,-0.3936035931110382,0.7651036381721497,0.00133154122158885
1732621169478517500,1.590517578125,-0.14433906972408295,0.40066078305244446,-0.024234050884842873
1732621169488619000,1.600618896484375,0.062316130846738815,-0.029693370684981346,0.07270215451717377
1732621169498733600,1.610733642578125,0.21677492558956146,-0.3386109471321106,0.19307348132133484
1732621169508858000,1.620858154296875,0.348863810300827,-0.5420704483985901,0.279357373714447
1732621169518988500,1.630988525390625,0.46284374594688416,-0.7093120217323303,0.27829211950302124
1732621169529121300,1.641121337890625,0.4926702678203583,-0.8392704725265503,0.21331290900707245
1732621169539218000,1.651218017578125,0.45325663685798645,-0.8669665455818176,0.11531147360801697
1732621169549259300,1.66125927734375,0.4926702678203583,-0.8893364071846008,-0.06045197322964668
1732621169559300900,1.67130078125,0.651390016078949,-0.8659012913703918,-0.2713681161403656
1732621169569342200,1.68134228515625,0.8090444803237915,-0.6645722389221191,-0.4290226101875305
1732621169579383600,1.691383544921875,0.974155604839325,-0.4994611442089081,-0.5334154367446899
1732621169589424600,1.701424560546875,1.112635850906372,-0.534613847732544,-0.595198929309845
1732621169599465700,1.7114658203125,1.0764179229736328,-0.6208977103233337,-0.5920032262802124
1732621169609507000,1.721507080078125,0.9059807062149048,-0.7114425301551819,-0.5600462555885315
1732621169619548200,1.731548095703125,0.7387390732765198,-0.7913349866867065,-0.47802332043647766
1732621169629589500,1.741589599609375,0.5374100804328918,-0.6219629049301147,-0.30971649289131165
1732621169639630600,1.751630615234375,0.3222329914569855,-0.21930484473705292,-0.09880036115646362
1732621169649672000,1.761671875,0.16777420043945312,0.2685718834400177,0.11850717663764954
1732621169659713300,1.77171337890625,0.035685304552316666,0.8141043186187744,0.3485974967479706
1732621169669754600,1.781754638671875,-0.044207170605659485,1.1826750040054321,0.5584484338760376
1732621169679796000,1.7917958984375,0.0005326165119186044,1.3158290386199951,0.6905373334884644
1732621169689837300,1.80183740234375,0.13368675112724304,1.178413987159729,0.7810820937156677
1732621169699879000,1.81187890625,0.3190372884273529,0.7832126021385193,0.7981258630752563
1732621169709920500,1.82192041015625,0.5267577171325684,0.2994636297225952,0.724624752998352
1732621169719961900,1.8319619140625,0.6332810521125793,0.07363422960042953,0.6788197159767151
1732621169730003500,1.84200341796875,0.6439333558082581,0.21317975223064423,0.6884068250656128
1732621169740045000,1.852045166015625,0.5991935729980469,0.6362104415893555,0.6766892671585083
1732621169750086700,1.862086669921875,0.4798874855041504,1.1464570760726929,0.5925358533859253
1732621169760128000,1.8721279296875,0.23168818652629852,1.5065058469772339,0.4955996572971344
1732621169770050600,1.882050537109375,-0.16351327300071716,1.7035739421844482,0.5009258389472961
1732621169779982800,1.89198291015625,-0.5842803120613098,1.7547050714492798,0.6149057745933533
1732621169789928400,1.901928466796875,-0.9006544947624207,1.6322033405303955,0.8375394940376282
1732621169799890700,1.911890625,-1.0274173021316528,1.401047706604004,1.1038477420806885
1732621169809872400,1.921872314453125,-0.9752208590507507,1.1006519794464111,1.2583065032958984
1732621169819875000,1.931875,-0.820762038230896,0.8119738698005676,1.2955896854400635
1732621169829894400,1.941894287109375,-0.6268896460533142,0.5680354833602905,1.2306104898452759
1732621169839935500,1.951935546875,-0.38934266567230225,0.5039883852005005,1.115565299987793
1732621169849993000,1.961992919921875,-0.18588316440582275,0.578687846660614,1.0580426454544067
1732621169860070000,1.97206982421875,-0.19973118603229523,0.7065157890319824,1.1240870952606201
1732621169870159400,1.982159423828125,-0.4553871154785156,0.7565817832946777,1.2497845888137817
1732621169880264000,1.992263916015625,-0.7877398133277893,0.5350132584571838,1.321155309677124
1732621169890375700,2.002375732421875,-1.0327434539794922,0.07363422960042953,1.3595036268234253
1732621169900496400,2.012496337890625,-0.9347419738769531,-0.27895790338516235,1.3296771049499512
1732621169910617300,2.022617431640625,-0.48521363735198975,-0.5069177746772766,1.3722864389419556
1732621169920671500,2.03267138671875,0.774957001209259,-0.7252905368804932,1.7078348398208618
1732621169930712300,2.04271240234375,2.604095220565796,-1.6190210580825806,2.1509718894958496
1732621169940758000,2.052758056640625,3.220865249633789,-1.8842641115188599,2.073209762573242
1732621169950794200,2.062794189453125,1.7508436441421509,-0.9926640391349792,1.5480499267578125
1732621169960835600,2.072835693359375,-0.6716294288635254,-0.3705679476261139,0.8929315805435181
1732621169970881800,2.0828818359375,-2.3461756706237793,-0.4792217016220093,0.494534432888031
1732621169980932000,2.09293212890625,-2.4058287143707275,-0.057389430701732635,0.6436670422554016
1732621169990960400,2.10296044921875,-1.6431219577789307,0.6766892671585083,1.0058462619781494
1732621170000989000,2.112989013671875,-0.4447347819805145,0.4592485725879669,1.0644340515136719
1732621170011023400,2.1230234375,0.6343462467193604,-0.5005263686180115,0.5967968106269836
1732621170021063400,2.1330634765625,1.4078385829925537,-1.2962554693222046,-0.12010502070188522
1732621170031109400,2.143109375,1.8552364110946655,-1.5849336385726929,-0.6548519730567932
1732621170041160700,2.15316064453125,1.837127447128296,-1.4581708908081055,-0.9296821355819702
1732621170051207400,2.16320751953125,1.366294503211975,-1.1268833875656128,-1.0533822774887085
1732621170061259000,2.173259033203125,0.5853455662727356,-0.7444647550582886,-0.9850742220878601
1732621170071314700,2.183314697265625,-0.3222329914569855,-0.39613354206085205,-0.7304835319519043
1732621170081373400,2.19337353515625,-0.9837427139282227,-0.20439158380031586,-0.4013265371322632
1732621170091375000,2.203375,-1.1744194030761719,-0.18095645308494568,-0.14673584699630737
1732621170101383000,2.2133828125,-1.0231562852859497,-0.23528334498405457,-0.024234050884842873
1732621170111398400,2.2233984375,-0.7270215153694153,-0.232087641954422,-0.06364767253398895
1732621170121421800,2.233421875,-0.4074516296386719,-0.17243459820747375,-0.2937380075454712
1732621170131453700,2.24345361328125,-0.23807957768440247,-0.06591129302978516,-0.594133734703064
1732621170141494500,2.25349462890625,-0.2956021726131439,0.14287437498569489,-0.8583115339279175
1732621170151538400,2.263538330078125,-0.46497422456741333,0.3090507388114929,-1.0693608522415161
1732621170161590800,2.2735908203125,-0.6854774355888367,0.4379439353942871,-1.1577751636505127
1732621170171650300,2.283650390625,-0.866567075252533,0.555252730846405,-1.118361473083496
1732621170181716200,2.29371630859375,-0.8921326398849487,0.5499265193939209,-1.0106397867202759
1732621170191787000,2.303787109375,-0.8196967840194702,0.3314206302165985,-0.8987903594970703
1732621170201828900,2.313828857421875,-0.6737598776817322,-0.022236740216612816,-0.6644390821456909
1732621170211873800,2.323873779296875,-0.47349607944488525,-0.297066867351532,-0.20958459377288818
1732621170221919500,2.33391943359375,-0.11451254785060883,-0.3173062801361084,0.3975982367992401
1732621170231953200,2.343953125,0.36484232544898987,0.16950520873069763,1.0772168636322021
1732621170241987000,2.353987060546875,0.8516538143157959,1.0963910818099976,1.7525746822357178
1732621170252021500,2.364021484375,1.3322070837020874,2.1648197174072266,2.509955406188965
1732621170262057000,2.374056884765625,1.520753264427185,3.3110105991363525,3.454817056655884
1732621170272093200,2.38409326171875,1.4472522735595703,4.221784591674805,4.524444103240967
1732621170282130700,2.394130615234375,1.1211577653884888,4.177044868469238,5.824028491973877
1732621170292174000,2.404174072265625,0.6407376527786255,3.145899534225464,7.190722465515137
1732621170302221000,2.414220947265625,0.35738566517829895,2.111558198928833,8.313611030578613
1732621170312269300,2.424269287109375,0.0026630824431777,-3.7398998737335205,7.7574262619018555
1732621170322318000,2.434318115234375,-0.8644366264343262,-7.197779655456543,-0.2926727831363678
1732621170332366600,2.44436669921875,0.7802832126617432,1.485201120376587,-2.6554927825927734
1732621170342408000,2.454407958984375,0.8633713722229004,2.3022348880767822,-1.62434720993042
1732621170352449300,2.46444921875,0.2998631000518799,1.7919882535934448,-0.46843621134757996
1732621170362490600,2.47449072265625,0.7387390732765198,0.8694964647293091,0.6138405203819275
1732621170372535600,2.48453564453125,1.0465914011001587,-0.46004751324653625,1.0388685464859009
1732621170382581800,2.494581787109375,0.9528509378433228,-2.354031801223755,1.1411309242248535
1732621170392628200,2.504628173828125,0.8495233654975891,-3.40541672706604,1.3318076133728027
1732621170402656300,2.51465625,0.5981283187866211,-3.443765163421631,1.2487194538116455
1732621170412689700,2.524689697265625,0.29240646958351135,-3.0251286029815674,0.7608426809310913
1732621170422728400,2.534728515625,0.07083799690008163,-2.188920736312866,-0.0061250897124409676
1732621170432772600,2.544772705078125,-0.042076703161001205,-1.2898640632629395,-0.8742899894714355
1732621170442821000,2.554821044921875,-0.13368675112724304,-0.6752246022224426,-1.6019773483276367
1732621170452871700,2.56487158203125,-0.2338186502456665,-0.4014596939086914,-2.0706799030303955
1732621170462913800,2.574913818359375,-0.29134124517440796,-0.4216991364955902,-2.3007702827453613
1732621170472946200,2.5849462890625,-0.31690680980682373,-0.6283543109893799,-2.307161569595337
1732621170482978800,2.594978759765625,-0.33395054936408997,-0.9915987849235535,-2.171876907348633
1732621170493012000,2.605011962890625,-0.3914731442928314,-1.4549751281738281,-2.006765842437744
1732621170503046400,2.61504638671875,-0.4766917824745178,-1.8427200317382812,-1.8373937606811523
1732621170513086700,2.625086669921875,-0.5427362322807312,-1.9865264892578125,-1.7351313829421997
1732621170523128000,2.635128173828125,-0.5469971299171448,-1.883198857307434,-1.745783805847168
1732621170533175300,2.64517529296875,-0.5342143774032593,-1.7106311321258545,-1.8405895233154297
1732621170543223000,2.65522314453125,-0.49693119525909424,-1.5242153406143188,-2.0046353340148926
1732621170553275600,2.665275634765625,-0.42236489057540894,-1.3580389022827148,-2.1974425315856934
1732621170563318500,2.675318603515625,-0.32329821586608887,-1.2142324447631836,-2.3987715244293213
1732621170573366000,2.685365966796875,-0.26151469349861145,-1.0970568656921387,-2.596904993057251
1732621170583402200,2.69540234375,-0.2657756507396698,-1.0640345811843872,-2.628861904144287
1732621170593443300,2.705443359375,-0.2902759909629822,-1.2653636932373047,-2.530860424041748
1732621170603484400,2.715484375,-0.25831902027130127,-1.0661650896072388,-2.0152876377105713
1732621170613525500,2.725525390625,-0.25192761421203613,0.03209014609456062,-0.870029091835022
1732621170623566600,2.735566650390625,-0.3744294047355652,0.9419323205947876,0.36031508445739746
1732621170633612500,2.745612548828125,-0.5310186743736267,1.3051767349243164,1.6045072078704834
1732621170643649500,2.7556494140625,-0.5501928329467773,1.7131609916687012,3.052158832550049
1732621170653691600,2.765691650390625,-0.2902759909629822,1.9368599653244019,4.383833408355713
1732621170663732500,2.775732421875,0.15605664253234863,1.8345975875854492,5.567307472229004
1732621170673778200,2.785778076171875,0.5651060938835144,1.8676197528839111,6.700715065002441
1732621170683828500,2.795828369140625,0.8111749291419983,2.401301622390747,7.490052700042725
1732621170693882400,2.80588232421875,0.7121082544326782,3.230052947998047,7.840514659881592
1732621170703939600,2.815939697265625,0.2561885416507721,4.64468240737915,8.052495956420898
1732621170713999400,2.825999267578125,-0.3744294047355652,5.225367546081543,-3.5524189472198486
1732621170724061000,2.83606103515625,-0.674825131893158,6.402450084686279,-9.071524620056152
1732621170734123000,2.846123046875,-0.07722939550876617,2.8763954639434814,-1.8192847967147827
1732621170744183800,2.856183837890625,-0.2902759909629822,-1.0469908714294434,1.4266133308410645
1732621170754225200,2.86622509765625,0.027163442224264145,-2.4786641597747803,3.2865102291107178
1732621170764266500,2.8762666015625,1.0796136856079102,-3.32552433013916,3.9268484115600586
1732621170774307800,2.886307861328125,1.5857324600219727,-3.7122039794921875,3.836303472518921
1732621170784230000,2.89622998046875,1.7135604619979858,-3.574788808822632,3.1150076389312744
1732621170794161400,2.906161376953125,1.6187547445297241,-2.723667621612549,1.8367280960083008
1732621170804106500,2.9161064453125,1.2203575372695923,-1.7031744718551636,0.33155378699302673
1732621170814068500,2.926068359375,0.6939992904663086,-0.9085106253623962,-1.1109049320220947
1732621170824045000,2.936045166015625,0.19653549790382385,-0.4547213613986969,-2.4083588123321533
1732621170834043100,2.946043212890625,-0.2018616646528244,-0.3087844252586365,-3.3425681591033936
1732621170844063200,2.956063232421875,-0.5171706080436707,-0.27043604850769043,-3.809140205383301
1732621170854105600,2.966105712890625,-0.7014559507369995,-0.2821536064147949,-3.9082067012786865
1732621170864169200,2.976169189453125,-0.7706961035728455,-0.4770912528038025,-3.7825093269348145
1732621170874252500,2.98625244140625,-0.758978545665741,-0.9244890809059143,-3.54176664352417
1732621170884348000,2.996347900390625,-0.7302172183990479,-1.4634970426559448,-3.3095457553863525
1732621170894457900,3.006457763671875,-0.6780208349227905,-1.876807451248169,-3.214740037918091
1732621170904578800,3.016578857421875,-0.5991935729980469,-2.0088963508605957,-3.270132303237915
1732621170914707200,3.026707275390625,-0.5736280083656311,-1.8949164152145386,-3.4608089923858643
1732621170924839400,3.03683935546875,-0.5374100804328918,-1.577476978302002,-3.728182315826416
1732621170934969900,3.046969970703125,-0.5267577171325684,-1.1790797710418701,-3.991295099258423
1732621170945012700,3.0570126953125,-0.5288882255554199,-0.7689650654792786,-4.201146125793457
1732621170955052500,3.067052490234375,-0.4905398190021515,-0.4025249183177948,-4.3108649253845215
1732621170965092600,3.077092529296875,-0.49586597084999084,-0.21291345357894897,-4.314060688018799
1732621170975016200,3.08701611328125,-0.5480623841285706,-0.1990654170513153,-3.995555877685547
1732621170984949200,3.09694921875,-0.47349607944488525,-0.14260807633399963,-3.0102152824401855
1732621170994896000,3.106895751953125,-0.2348838746547699,-0.05312849581241608,-1.4443228244781494
1732621171004859100,3.116859130859375,0.14540430903434753,0.24194104969501495,0.43488138914108276
1732621171014841600,3.126841552734375,0.5874760150909424,0.8844097256660461,2.383192539215088
1732621171024844500,3.136844482421875,0.9943950176239014,1.9720126390457153,4.23789644241333
1732621171034869200,3.146869140625,1.383338212966919,3.084115982055664,5.755853652954102
1732621171044915000,3.1569150390625,1.7071690559387207,4.1759796142578125,6.907370567321777
1732621171054980900,3.16698095703125,1.735930323600769,5.124037265777588,7.74570894241333
1732621171065065200,3.177065185546875,1.3673597574234009,5.4330878257751465,8.310415267944336
1732621171075165700,3.187165771484375,0.904915452003479,5.7601141929626465,8.937837600708008
1732621171085274400,3.1972744140625,-0.5011921525001526,3.140573263168335,7.185396194458008
1732621171095392800,3.207392822265625,-2.1437814235687256,-1.0906654596328735,-5.125768184661865
1732621171105517800,3.217517822265625,0.16457849740982056,1.9187510013580322,-1.654173731803894
1732621171115645700,3.227645751953125,0.5342143774032593,-1.2600375413894653,0.8002563118934631
1732621171125635800,3.2376357421875,0.5981283187866211,-1.9737436771392822,2.0582964420318604
1732621171135633200,3.247633056640625,0.9368724226951599,-1.4816060066223145,2.359757423400879
1732621171145638400,3.257638427734375,0.942198634147644,-0.596397340297699,1.491592526435852
1732621171155653400,3.2676533203125,0.666303277015686,0.5018579363822937,-0.03169068321585655
1732621171165678300,3.27767822265625,0.3073197305202484,0.8950620293617249,-1.0266183614730835
1732621171175713500,3.287713623046875,-0.058055199682712555,0.7832126021385193,-0.9957265853881836
1732621171185759200,3.29775927734375,-0.19440503418445587,0.3420729637145996,-0.48867565393447876
1732621171195814400,3.307814453125,-0.07722939550876617,-0.10532491654157639,0.05672365799546242
1732621171205878300,3.317878173828125,0.010119713842868805,-0.09041165560483932,0.29746630787849426
1732621171215949800,3.32794970703125,0.0047935484908521175,0.0778951644897461,0.16324695944786072
1732621171226026800,3.33802685546875,-0.033554840832948685,0.10985215753316879,-0.07536523789167404
1732621171236108000,3.34810791015625,-0.12409964948892593,-0.027562905102968216,-0.2798899710178375
1732621171246191900,3.35819189453125,-0.1688394397497177,-0.1468690037727356,-0.45884913206100464
1732621171256276500,3.3682763671875,-0.16138280928134918,-0.1671084314584732,-0.6026555895805359
1732621171266336000,3.3783359375,-0.15073047578334808,-0.08082455396652222,-0.6846785545349121
1732621171276377000,3.388377197265625,-0.10386022180318832,0.08641702681779861,-0.7208964228630066
1732621171286418200,3.398418212890625,-0.012250179424881935,0.3090507388114929,-0.6974613070487976
1732621171296459300,3.408459228515625,0.07829462736845016,0.44433531165122986,-0.6271559596061707
1732621171306500600,3.41850048828125,0.10279498994350433,0.4954665005207062,-0.5451329946517944
1732621171316541700,3.428541748046875,0.08788172155618668,0.4496614933013916,-0.4620448350906372
1732621171326582800,3.438582763671875,0.048468101769685745,0.34739911556243896,-0.3896089792251587
1732621171336505300,3.44850537109375,0.0026630824431777,0.22276686131954193,-0.3224993050098419
1732621171346437400,3.458437255859375,0.033554840832948685,0.12370018661022186,-0.24154159426689148
1732621171356383000,3.468383056640625,0.048468101769685745,0.09600412845611572,-0.15738818049430847
1732621171366345500,3.478345458984375,0.037815771996974945,0.1396786868572235,-0.10306129604578018
1732621171376327400,3.488327392578125,0.041011471301317215,0.18974463641643524,-0.09134373068809509
1732621171386330000,3.498330078125,0.060185667127370834,0.2696371078491211,-0.07216953486204147
1732621171396354300,3.508354248046875,0.058055199682712555,0.2579195499420166,0.013049104250967503
1732621171406400000,3.51839990234375,0.010119713842868805,0.13435252010822296,0.17070358991622925
1732621171416466400,3.528466552734375,-0.07083799690008163,0.015046416781842709,0.3560541272163391
1732621171426551000,3.538551025390625,-0.1390129029750824,-0.08721595257520676,0.48175162076950073
1732621171436652000,3.548652099609375,-0.15499140322208405,-0.12982527911663055,0.4870778024196625
1732621171446766000,3.55876611328125,-0.1059906855225563,-0.050998032093048096,0.37203264236450195
1732621171456889600,3.5688896484375,-0.06657706201076508,0.061916667968034744,0.1760297566652298
1732621171467019300,3.579019287109375,-0.06551183015108109,0.14393961429595947,-0.0061250897124409676
1732621171477151200,3.589151123046875,-0.0857512578368187,0.17057043313980103,-0.07110430300235748
1732621171487246300,3.599246337890625,-0.1166430190205574,0.14500483870506287,-0.03914731368422508
1732621171497287700,3.60928759765625,-0.10386022180318832,0.07150376588106155,0.04181039705872536
1732621171507329000,3.6193291015625,-0.07296846061944962,0.0001331541279796511,0.16111649572849274
1732621171517370400,3.629370361328125,-0.07935985922813416,-0.048867564648389816,0.2591179311275482
1732621171527411700,3.63941162109375,-0.10172975063323975,-0.07336792349815369,0.3017272651195526
1732621171537453300,3.649453369140625,-0.13262151181697845,-0.07017222791910172,0.2910749316215515
1732621171547494700,3.65949462890625,-0.16244803369045258,-0.021171506494283676,0.23781327903270721
1732621171557536000,3.669535888671875,-0.16564373672008514,0.04593817517161369,0.13874660432338715
1732621171567577300,3.679577392578125,-0.1390129029750824,0.1290263533592224,0.015179570764303207
1732621171577618700,3.68961865234375,-0.10918638855218887,0.21850591897964478,-0.10199606418609619
1732621171587660000,3.699659912109375,-0.09853405505418777,0.23448441922664642,-0.18827994167804718
1732621171597701400,3.709701416015625,-0.11344731599092484,0.2270277887582779,-0.20319320261478424
1732621171607742700,3.71974267578125,-0.11344731599092484,0.19720126688480377,-0.17017097771167755
1732621171617784000,3.7297841796875,-0.09959928691387177,0.16417904198169708,-0.10945269465446472
1732621171627825400,3.739825439453125,-0.09746882319450378,0.14393961429595947,-0.04660394415259361
1732621171637866800,3.74986669921875,-0.0857512578368187,0.14393961429595947,0.00133154122158885
1732621171647908400,3.759908447265625,-0.07190322875976562,0.13754820823669434,0.030092833563685417
1732621171657949700,3.76994970703125,-0.07935985922813416,0.11730878800153732,0.04500609636306763
1732621171667991000,3.779990966796875,-0.10066451877355576,0.10452599078416824,0.05352795869112015
1732621171678032400,3.790032470703125,-0.11238208413124084,0.08961272984743118,0.05139749497175217
1732621171688073500,3.800073486328125,-0.10386022180318832,0.06511236727237701,0.03435376659035683
1732621171698114300,3.8101142578125,-0.08255556225776672,0.047003407031297684,0.016244804486632347
1732621171708155400,3.8201552734375,-0.046337638050317764,0.040612008422613144,0.0023967742454260588
1732621171718196200,3.8301962890625,-0.025032976642251015,0.03528584539890289,0.013049104250967503
1732621171728237600,3.840237548828125,-0.019706811755895615,0.019307348877191544,0.0375494658946991
1732621171738161400,3.850161376953125,-0.023967742919921875,0.0001331541279796511,0.05672365799546242
1732621171748095000,3.860094970703125,-0.025032976642251015,-0.009453942999243736,0.06311506032943726
1732621171758041900,3.870041748046875,-0.027163442224264145,-0.013714875094592571,0.06098458915948868
1732621171768005400,3.88000537109375,-0.032489608973264694,-0.019041040912270546,0.06098458915948868
1732621171777986000,3.889986083984375,-0.042076703161001205,-0.019041040912270546,0.0695064514875412
1732621171787987500,3.899987548828125,-0.032489608973264694,-0.019041040912270546,0.08228924870491028
1732621171798005800,3.910005859375,0.0015978495357558131,-0.030758604407310486,0.09400681406259537
1732621171808045800,3.9200458984375,0.013315413147211075,-0.03928046673536301,0.1014634445309639
1732621171818107000,3.93010693359375,0.0079892473295331,-0.04673709720373154,0.09507204592227936
1732621171828187400,3.9401875,0.0047935484908521175,-0.05312849581241608,0.08441971987485886
1732621171838285000,3.95028515625,0.0037283156998455524,-0.06271559745073318,0.06844121962785721
1732621171848397000,3.96039697265625,0.006924014538526535,-0.048867564648389816,0.05352795869112015
1732621171858519600,3.97051953125,0.010119713842868805,-0.026497671380639076,0.030092833563685417
1732621171868649000,3.98064892578125,0.0079892473295331,-0.015845341607928276,0.009853405877947807
1732621171878781700,3.99078173828125,0.006924014538526535,0.00226362026296556,0.0077229393646121025
1732621171888902700,4.000902587890625,0.020772043615579605,0.00226362026296556,0.014114337973296642
1732621171898943200,4.010943115234375,0.041011471301317215,0.005459319334477186,0.008788172155618668
1732621171908983800,4.02098388671875,0.042076703161001205,0.010785484686493874,-0.018907885998487473
1732621171919024600,4.031024658203125,0.046337638050317764,0.009720250964164734,-0.04447348043322563
1732621171929065200,4.041065185546875,0.046337638050317764,0.00226362026296556,-0.04340824484825134
1732621171939106000,4.05110595703125,0.049533337354660034,-0.017975807189941406,-0.011451254598796368
1732621171949147100,4.061147216796875,0.052729032933712006,-0.041410934180021286,0.023701434955000877
1732621171959188000,4.07118798828125,0.046337638050317764,-0.060585130006074905,0.04713656008243561
1732621171969229300,4.081229248046875,0.037815771996974945,-0.05632419511675835,0.05352795869112015
1732621171979270700,4.091270751953125,0.021837277337908745,-0.031823836266994476,0.04500609636306763
1732621171989312000,4.10131201171875,-0.0026630824431777,0.005459319334477186,0.030092833563685417
1732621171999353300,4.111353271484375,-0.01438064593821764,0.022503048181533813,0.013049104250967503
1732621172009395000,4.12139501953125,-0.0037283156998455524,0.006524552125483751,-0.0018641578499227762
1732621172019436800,4.131436767578125,0.00905448105186224,-0.014780107885599136,-0.0018641578499227762
1732621172029478700,4.141478759765625,0.019706811755895615,-0.026497671380639076,0.013049104250967503
1732621172039520300,4.151520263671875,0.031424373388290405,-0.04673709720373154,0.04287562891840935
1732621172049562400,4.161562255859375,0.035685304552316666,-0.07762885838747025,0.08868064731359482
1732621172059604200,4.171604248046875,0.029293907806277275,-0.10212921351194382,0.12383333593606949
1732621172069646000,4.18164599609375,0.018641578033566475,-0.1042596846818924,0.13555090129375458
1732621172079688000,4.19168798828125,0.0026630824431777,-0.09147688746452332,0.12383333593606949
1732621172089729500,4.2017294921875,-0.0015978495357558131,-0.058454662561416626,0.08655018359422684
1732621172099771000,4.21177099609375,-0.0005326165119186044,-0.013714875094592571,0.04394086077809334
1732621172109812200,4.221812255859375,-0.0005326165119186044,0.004394086077809334,0.026897134259343147
1732621172119853300,4.231853271484375,0.00585878174751997,-0.010519175790250301,0.03967992961406708
1732621172129894400,4.241894287109375,0.021837277337908745,-0.03928046673536301,0.05246272683143616
1732621172139935500,4.251935546875,0.035685304552316666,-0.041410934180021286,0.0588541254401207
1732621172149976600,4.2619765625,0.045272402465343475,-0.052063263952732086,0.06204982474446297
1732621172160018000,4.272017822265625,0.033554840832948685,-0.07762885838747025,0.06418029218912125
1732621172170059000,4.28205908203125,0.01118494663387537,-0.08828118443489075,0.0588541254401207
1732621172180100400,4.292100341796875,0.0015978495357558131,-0.07869409024715424,0.04500609636306763
1732621172190141700,4.3021416015625,-0.0026630824431777,-0.038215234875679016,0.019440501928329468
1732621172200183300,4.312183349609375,0.0037283156998455524,-0.005193010903894901,-0.013581721112132072
1732621172210224600,4.322224609375,0.01438064593821764,0.019307348877191544,-0.03488638252019882
1732621172220266200,4.332266357421875,0.016511112451553345,0.03528584539890289,-0.029560215771198273
1732621172230307800,4.342307861328125,0.01118494663387537,0.027829213067889214,-0.024234050884842873
1732621172240349400,4.352349365234375,0.006924014538526535,0.010785484686493874,-0.022103585302829742
1732621172250373600,4.36237353515625,0.006924014538526535,-0.0009320789249613881,-0.017842652276158333
1732621172260399000,4.372399169921875,0.01438064593821764,-0.015845341607928276,-0.0050598569214344025
1732621172270376200,4.382376220703125,0.013315413147211075,-0.03608476743102074,0.0023967742454260588
1732621172280359700,4.392359619140625,-0.0015978495357558131,-0.04673709720373154,0.00452724052593112
1732621172290347000,4.402346923828125,-0.00905448105186224,-0.047802332788705826,0.006657706573605537
1732621172300344600,4.412344482421875,-0.012250179424881935,-0.03928046673536301,0.00452724052593112
1732621172310349600,4.422349609375,-0.020772043615579605,-0.014780107885599136,0.0023967742454260588
1732621172320367600,4.43236767578125,-0.017576344311237335,0.009720250964164734,-0.00399462366476655
1732621172330394000,4.44239404296875,-0.0079892473295331,0.019307348877191544,-0.012516488321125507
1732621172340434400,4.452434326171875,-0.00905448105186224,0.026763979345560074,-0.010386021807789803
1732621172350483200,4.462483154296875,-0.00905448105186224,0.034220609813928604,-0.002929390873759985
1732621172360544500,4.47254443359375,-0.0047935484908521175,0.022503048181533813,0.0034620072692632675
1732621172370612200,4.4826123046875,-0.00585878174751997,-0.004127778112888336,0.011983871459960938
1732621172380690000,4.49268994140625,-0.01438064593821764,-0.021171506494283676,0.019440501928329468
1732621172390770700,4.502770751953125,-0.023967742919921875,-0.025432437658309937,0.019440501928329468
1732621172400858000,4.512858154296875,-0.030359141528606415,-0.012649642303586006,0.014114337973296642
1732621172410950000,4.522949951171875,-0.033554840832948685,0.005459319334477186,0.011983871459960938
1732621172421043700,4.533043701171875,-0.035685304552316666,0.020372580736875534,0.010918638668954372
1732621172431136800,4.54313671875,-0.031424373388290405,0.022503048181533813,0.00452724052593112
1732621172441177900,4.553177734375,-0.026098208501935005,0.028894444927573204,-0.0018641578499227762
1732621172451218700,4.56321875,-0.022902509197592735,0.026763979345560074,0.0002663082559593022
1732621172461259800,4.573259765625,-0.020772043615579605,0.010785484686493874,0.011983871459960938
1732621172471300600,4.583300537109375,-0.021837277337908745,-0.012649642303586006,0.027962366119027138
1732621172481341700,4.593341796875,-0.017576344311237335,-0.03608476743102074,0.04287562891840935
1732621172491382800,4.6033828125,-0.023967742919921875,-0.041410934180021286,0.05139749497175217
1732621172501423900,4.613423828125,-0.029293907806277275,-0.025432437658309937,0.04394086077809334
1732621172511465200,4.62346533203125,-0.026098208501935005,0.0001331541279796511,0.021570969372987747
1732621172521506600,4.633506591796875,-0.031424373388290405,0.021437814459204674,-0.008255556225776672
1732621172531548000,4.6435478515625,-0.034620072692632675,0.040612008422613144,-0.027429750189185143
1732621172541589200,4.65358935546875,-0.029293907806277275,0.04913387447595596,-0.030625449493527412
1732621172551630800,4.663630859375,-0.022902509197592735,0.041677240282297134,-0.024234050884842873
1732621172561672400,4.67367236328125,-0.017576344311237335,0.016111649572849274,-0.014646953903138638
1732621172571714000,4.683714111328125,-0.022902509197592735,0.005459319334477186,0.005592473316937685
1732621172581755600,4.693755615234375,-0.020772043615579605,-0.001997311832383275,0.020505735650658607
1732621172591797500,4.703797607421875,-0.016511112451553345,-0.010519175790250301,0.026897134259343147
1732621172601839000,4.713839111328125,-0.012250179424881935,-0.007323476951569319,0.026897134259343147
1732621172611881000,4.723880859375,-0.0079892473295331,0.0033288532868027687,0.020505735650658607
1732621172621922800,4.7339228515625,-0.0026630824431777,0.013981183059513569,0.006657706573605537
1732621172631942700,4.743942626953125,-0.006924014538526535,0.023568280041217804,-0.00719032296910882
1732621172641942300,4.7539423828125,-0.017576344311237335,0.025698747485876083,-0.026364516466856003
1732621172651942100,4.763942138671875,-0.013315413147211075,0.033155377954244614,-0.03914731368422508
1732621172661943000,4.773943115234375,0.0026630824431777,0.029959678649902344,-0.03808208182454109
1732621172671946800,4.78394677734375,0.006924014538526535,0.009720250964164734,-0.019973119720816612
1732621172681954300,4.793954345703125,-0.0037283156998455524,0.00226362026296556,0.005592473316937685
1732621172691967200,4.80396728515625,-0.0037283156998455524,0.007589785382151604,0.0077229393646121025
1732621172701986300,4.813986328125,-0.0037283156998455524,0.018242115154862404,-0.0061250897124409676
1732621172712012300,4.82401220703125,-0.010119713842868805,0.025698747485876083,-0.013581721112132072
1732621172722048500,4.834048583984375,-0.015445878729224205,0.016111649572849274,-0.0050598569214344025
1732621172732091600,4.844091552734375,-0.010119713842868805,-0.0030625448562204838,0.005592473316937685
1732621172742142500,4.854142578125,-0.0037283156998455524,-0.025432437658309937,0.018375270068645477
1732621172752199000,4.864198974609375,-0.0015978495357558131,-0.03288906812667847,0.025831900537014008
1732621172762260500,4.874260498046875,0.0015978495357558131,-0.031823836266994476,0.025831900537014008
1732621172772326100,4.884326171875,0.0015978495357558131,-0.023301972076296806,0.014114337973296642
1732621172782394600,4.89439453125,-0.0026630824431777,-0.006258244160562754,-0.0007989247678779066
1732621172792469800,4.9044697265625,-0.00585878174751997,0.011850717477500439,-0.012516488321125507
1732621172802548000,4.9145478515625,-0.0037283156998455524,0.018242115154862404,-0.015712186694145203
1732621172812622600,4.92462255859375,-0.0079892473295331,0.004394086077809334,-0.009320789016783237
1732621172822630700,4.934630615234375,-0.012250179424881935,-0.005193010903894901,0.00133154122158885
1732621172832640000,4.944639892578125,-0.006924014538526535,-0.006258244160562754,0.0077229393646121025
1732621172842656500,4.954656494140625,-0.0026630824431777,-0.004127778112888336,0.00452724052593112
1732621172852681200,4.96468115234375,-0.006924014538526535,0.006524552125483751,-0.00399462366476655
1732621172862713000,4.974713134765625,-0.010119713842868805,0.005459319334477186,-0.015712186694145203
1732621172872751600,4.984751708984375,-0.0079892473295331,0.00226362026296556,-0.024234050884842873
1732621172882795000,4.994794921875,-0.012250179424881935,0.0001331541279796511,-0.024234050884842873
1732621172892841700,5.004841796875,-0.021837277337908745,-0.004127778112888336,-0.019973119720816612
1732621172902891300,5.014891357421875,-0.021837277337908745,-0.007323476951569319,-0.017842652276158333
1732621172912943000,5.024943115234375,-0.016511112451553345,-0.008388710208237171,-0.015712186694145203
1732621172922997000,5.0349970703125,-0.013315413147211075,0.0001331541279796511,-0.022103585302829742
1732621172933052400,5.045052490234375,-0.00585878174751997,0.005459319334477186,-0.03382114693522453
1732621172943108400,5.0551083984375,-0.0005326165119186044,0.012915950268507004,-0.04234301298856735
1732621172953164500,5.06516455078125,-0.0005326165119186044,0.025698747485876083,-0.04660394415259361
1732621172963210000,5.0752099609375,-0.0037283156998455524,0.03209014609456062,-0.04127778112888336
1732621172973260000,5.085260009765625,-0.006924014538526535,0.028894444927573204,-0.030625449493527412
1732621172983292400,5.09529248046875,-0.012250179424881935,0.019307348877191544,-0.022103585302829742
1732621172993330200,5.105330078125,-0.020772043615579605,0.006524552125483751,-0.014646953903138638
1732621173003368200,5.1153681640625,-0.022902509197592735,0.005459319334477186,-0.011451254598796368
1732621173013411300,5.125411376953125,-0.016511112451553345,0.023568280041217804,-0.014646953903138638
1732621173023454500,5.135454345703125,-0.012250179424881935,0.04274247586727142,-0.014646953903138638
1732621173033502700,5.145502685546875,-0.010119713842868805,0.050199106335639954,-0.014646953903138638
1732621173043541000,5.155541015625,-0.006924014538526535,0.048068638890981674,-0.013581721112132072
1732621173053584100,5.165584228515625,-0.0005326165119186044,0.048068638890981674,-0.012516488321125507
1732621173063623700,5.175623779296875,-0.0015978495357558131,0.036351077258586884,-0.011451254598796368
1732621173073668000,5.185668212890625,-0.0026630824431777,0.029959678649902344,-0.010386021807789803
1732621173083706000,5.1957060546875,0.0005326165119186044,0.029959678649902344,-0.012516488321125507
1732621173093749200,5.205749267578125,-0.00585878174751997,0.017176883295178413,-0.015712186694145203
1732621173103790600,5.21579052734375,-0.021837277337908745,0.005459319334477186,-0.024234050884842873
1732621173113837000,5.225837158203125,-0.029293907806277275,0.0001331541279796511,-0.03488638252019882
1732621173123887600,5.2358876953125,-0.016511112451553345,0.017176883295178413,-0.04553871229290962
1732621173133942000,5.24594189453125,0.0005326165119186044,0.025698747485876083,-0.04873441159725189
1732621173143999500,5.25599951171875,0.0005326165119186044,0.029959678649902344,-0.0370168462395668
1732621173154059500,5.2660595703125,-0.0015978495357558131,0.04593817517161369,-0.028494983911514282
1732621173164120800,5.276120849609375,0.0026630824431777,0.0555252730846405,-0.04021254554390907
1732621173174183000,5.286182861328125,0.006924014538526535,0.05659050494432449,-0.04979964345693588
1732621173184240600,5.29624072265625,0.0015978495357558131,0.04274247586727142,-0.04234301298856735
1732621173194282000,5.306281982421875,-0.0005326165119186044,0.026763979345560074,-0.025299284607172012
1732621173204323300,5.3163232421875,-0.0015978495357558131,0.011850717477500439,-0.009320789016783237
1732621173214364700,5.32636474609375,-0.0037283156998455524,0.0001331541279796511,0.0023967742454260588
1732621173224406000,5.336406005859375,-0.0047935484908521175,0.0011983871227130294,0.00452724052593112
1732621173234447400,5.346447265625,-0.0047935484908521175,0.00226362026296556,-0.00399462366476655
1732621173244488700,5.35648876953125,0.0026630824431777,0.015046416781842709,-0.014646953903138638
1732621173254530000,5.366530029296875,0.00585878174751997,0.023568280041217804,-0.024234050884842873
1732621173264571400,5.3765712890625,0.0015978495357558131,0.023568280041217804,-0.026364516466856003
1732621173274612700,5.38661279296875,0.006924014538526535,0.024633513763546944,-0.017842652276158333
1732621173284654000,5.396654052734375,0.00585878174751997,0.025698747485876083,0.0002663082559593022
1732621173294695400,5.4066953125,0.00585878174751997,0.016111649572849274,0.009853405877947807
1732621173304736800,5.41673681640625,0.0079892473295331,0.005459319334477186,0.013049104250967503
1732621173314778400,5.4267783203125,0.0037283156998455524,0.004394086077809334,0.00133154122158885
1732621173324819700,5.43681982421875,-0.0026630824431777,0.0033288532868027687,-0.015712186694145203
1732621173334861000,5.446861083984375,-0.0005326165119186044,-0.0009320789249613881,-0.025299284607172012
1732621173344902400,5.45690234375,0.0015978495357558131,-0.005193010903894901,-0.017842652276158333
1732621173354943700,5.46694384765625,0.0037283156998455524,-0.006258244160562754,-0.0050598569214344025
1732621173364985300,5.4769853515625,0.006924014538526535,0.007589785382151604,-0.0050598569214344025
1732621173375026700,5.487026611328125,0.01118494663387537,0.027829213067889214,-0.016777420416474342
1732621173385068300,5.497068359375,0.00585878174751997,0.040612008422613144,-0.03595161437988281
1732621173395109400,5.507109375,0.0015978495357558131,0.040612008422613144,-0.04127778112888336
1732621173405150700,5.517150634765625,0.0037283156998455524,0.018242115154862404,-0.03169068321585655
1732621173415192000,5.527192138671875,-0.0005326165119186044,-0.006258244160562754,-0.015712186694145203
1732621173425233200,5.537233154296875,-0.0037283156998455524,-0.016910573467612267,0.0002663082559593022
1732621173435274500,5.5472744140625,-0.0015978495357558131,-0.010519175790250301,0.005592473316937685
1732621173445315800,5.55731591796875,0.0015978495357558131,0.00226362026296556,-0.0050598569214344025
1732621173455357000,5.56735693359375,-0.0005326165119186044,0.017176883295178413,-0.018907885998487473
1732621173465398300,5.577398193359375,-0.0026630824431777,0.021437814459204674,-0.023168819025158882
1732621173475439600,5.587439697265625,-0.0005326165119186044,0.019307348877191544,-0.024234050884842873
1732621173485481000,5.59748095703125,-0.0015978495357558131,0.011850717477500439,-0.016777420416474342
1732621173495522300,5.607522216796875,-0.0037283156998455524,0.007589785382151604,-0.00719032296910882
1732621173505564000,5.61756396484375,0.0047935484908521175,0.004394086077809334,-0.0007989247678779066
1732621173515605200,5.627605224609375,0.010119713842868805,0.0011983871227130294,-0.002929390873759985
1732621173525646600,5.637646484375,0.015445878729224205,-0.0009320789249613881,-0.012516488321125507
1732621173535688000,5.64768798828125,0.018641578033566475,0.009720250964164734,-0.028494983911514282
1732621173545729500,5.6577294921875,0.013315413147211075,0.028894444927573204,-0.03914731368422508
1732621173555771000,5.66777099609375,0.0079892473295331,0.036351077258586884,-0.04979964345693588
1732621173565812200,5.677812255859375,0.006924014538526535,0.031024912372231483,-0.06258244067430496
1732621173575853800,5.687853759765625,0.0079892473295331,0.023568280041217804,-0.0689738392829895
1732621173585779700,5.69777978515625,0.0079892473295331,0.011850717477500439,-0.06151720881462097
1732621173595714800,5.70771484375,0.006924014538526535,0.0001331541279796511,-0.04340824484825134
1732621173605663000,5.7176630859375,0.010119713842868805,-0.006258244160562754,-0.027429750189185143
1732621173615627800,5.727627685546875,0.015445878729224205,0.0001331541279796511,-0.028494983911514282
1732621173625611000,5.737611083984375,0.01438064593821764,0.011850717477500439,-0.0370168462395668
1732621173635615000,5.747614990234375,0.022902509197592735,0.03209014609456062,-0.04340824484825134
1732621173645639700,5.7576396484375,0.028228675946593285,0.051264338195323944,-0.0476691760122776
1732621173655685000,5.76768505859375,0.031424373388290405,0.058720968663692474,-0.04873441159725189
1732621173665750500,5.77775048828125,0.030359141528606415,0.053394805639982224,-0.04979964345693588
1732621173675834000,5.787834228515625,0.019706811755895615,0.043807707726955414,-0.05086487531661987
1732621173685933300,5.797933349609375,0.013315413147211075,0.026763979345560074,-0.0476691760122776
1732621173696045000,5.808045166015625,0.018641578033566475,0.013981183059513569,-0.04447348043322563
1732621173706166500,5.81816650390625,0.020772043615579605,0.010785484686493874,-0.04447348043322563
1732621173716293600,5.828293701171875,0.016511112451553345,0.019307348877191544,-0.04979964345693588
1732621173726422800,5.8384228515625,0.01438064593821764,0.025698747485876083,-0.05725627392530441
1732621173736516900,5.848516845703125,0.015445878729224205,0.031024912372231483,-0.05938674136996269
1732621173746558200,5.85855810546875,0.018641578033566475,0.037416309118270874,-0.0476691760122776
1732621173756599600,5.868599609375,0.022902509197592735,0.033155377954244614,-0.03595161437988281
1732621173766640600,5.878640625,0.019706811755895615,0.015046416781842709,-0.026364516466856003
1732621173776681700,5.888681640625,0.01438064593821764,0.007589785382151604,-0.019973119720816612
1732621173786723000,5.89872314453125,0.015445878729224205,0.0011983871227130294,-0.017842652276158333
1732621173796764200,5.90876416015625,0.013315413147211075,-0.0030625448562204838,-0.009320789016783237
1732621173806805200,5.91880517578125,0.00585878174751997,-0.0030625448562204838,-0.0007989247678779066
1732621173816846600,5.9288466796875,0.0026630824431777,0.0001331541279796511,-0.0018641578499227762
1732621173826888000,5.938887939453125,0.0037283156998455524,0.005459319334477186,-0.008255556225776672
1732621173836833000,5.9488330078125,0.0015978495357558131,0.012915950268507004,-0.017842652276158333
1732621173846786000,5.9587861328125,-0.0026630824431777,0.017176883295178413,-0.022103585302829742
1732621173856750000,5.96875,-0.0037283156998455524,0.021437814459204674,-0.015712186694145203
1732621173866727400,5.9787275390625,0.0026630824431777,0.012915950268507004,-0.0050598569214344025
1732621173876720600,5.988720703125,0.0079892473295331,0.005459319334477186,0.00452724052593112
1732621173886730800,5.998730712890625,0.00905448105186224,0.0011983871227130294,0.0077229393646121025
1732621173896758300,6.00875830078125,0.00585878174751997,0.008655018173158169,0.00452724052593112
1732621173906803200,6.01880322265625,0.00585878174751997,0.008655018173158169,0.00133154122158885
1732621173916864500,6.028864501953125,0.006924014538526535,0.011850717477500439,0.0023967742454260588
1732621173926941000,6.03894091796875,0.00585878174751997,0.006524552125483751,0.009853405877947807
1732621173937030700,6.04903076171875,0.00585878174751997,0.00226362026296556,0.014114337973296642
1732621173947130600,6.059130615234375,0.013315413147211075,0.009720250964164734,0.009853405877947807
1732621173957238800,6.06923876953125,0.019706811755895615,0.019307348877191544,0.0077229393646121025
1732621173967351600,6.0793515625,0.022902509197592735,0.027829213067889214,0.010918638668954372
1732621173977466000,6.089466064453125,0.028228675946593285,0.028894444927573204,0.009853405877947807
1732621173987551500,6.099551513671875,0.033554840832948685,0.028894444927573204,0.011983871459960938
1732621173997592800,6.1095927734375,0.035685304552316666,0.024633513763546944,0.018375270068645477
1732621174007634200,6.11963427734375,0.031424373388290405,0.019307348877191544,0.027962366119027138
1732621174017675500,6.129675537109375,0.025032976642251015,0.022503048181533813,0.03541899845004082
1732621174027716900,6.139716796875,0.027163442224264145,0.023568280041217804,0.025831900537014008
1732621174037758000,6.149758056640625,0.027163442224264145,0.029959678649902344,0.008788172155618668
1732621174047799000,6.159799072265625,0.029293907806277275,0.029959678649902344,-0.0061250897124409676
1732621174057840000,6.169840087890625,0.029293907806277275,0.024633513763546944,-0.010386021807789803
1732621174067881500,6.179881591796875,0.032489608973264694,0.024633513763546944,0.00133154122158885
1732621174077922600,6.189922607421875,0.033554840832948685,0.018242115154862404,0.015179570764303207
1732621174087953400,6.199953369140625,0.032489608973264694,0.019307348877191544,0.023701434955000877
1732621174097985000,6.209985107421875,0.038881003856658936,0.024633513763546944,0.011983871459960938
1732621174108017700,6.220017578125,0.037815771996974945,0.026763979345560074,-0.0018641578499227762
1732621174118052000,6.230052001953125,0.037815771996974945,0.024633513763546944,-0.0018641578499227762
1732621174128088300,6.24008837890625,0.034620072692632675,0.017176883295178413,0.009853405877947807
1732621174138126300,6.250126220703125,0.027163442224264145,0.009720250964164734,0.022636201232671738
1732621174148166100,6.260166259765625,0.028228675946593285,0.005459319334477186,0.031158065423369408
1732621174158208300,6.270208251953125,0.025032976642251015,0.0033288532868027687,0.03435376659035683
1732621174168252000,6.280251953125,0.018641578033566475,0.005459319334477186,0.03861469775438309
1732621174178297000,6.290297119140625,0.016511112451553345,0.007589785382151604,0.04287562891840935
1732621174188344000,6.300343994140625,0.016511112451553345,0.00226362026296556,0.04500609636306763
1732621174198392000,6.31039208984375,0.01438064593821764,0.00226362026296556,0.04926702752709389
1732621174208440800,6.32044091796875,0.01438064593821764,0.015046416781842709,0.05033225938677788
1732621174218490000,6.330489990234375,0.017576344311237335,0.011850717477500439,0.04394086077809334
1732621174228539600,6.34053955078125,0.01438064593821764,-0.0030625448562204838,0.03861469775438309
1732621174238587000,6.3505869140625,0.00905448105186224,-0.008388710208237171,0.03648423030972481
1732621174248627500,6.36062744140625,0.00905448105186224,-0.007323476951569319,0.03222329914569855
1732621174258668000,6.37066796875,0.010119713842868805,-0.008388710208237171,0.024766668677330017
1732621174268708900,6.380708984375,0.0079892473295331,-0.007323476951569319,0.017310036346316338
1732621174278749400,6.39074951171875,0.0079892473295331,-0.008388710208237171,0.011983871459960938
1732621174288790300,6.400790283203125,0.0037283156998455524,-0.009453942999243736,0.011983871459960938
1732621174298831000,6.4108310546875,0.0015978495357558131,-0.013714875094592571,0.014114337973296642
1732621174308872200,6.4208720703125,0.0015978495357558131,-0.017975807189941406,0.013049104250967503
1732621174318913300,6.430913330078125,-0.0026630824431777,-0.020106272771954536,0.010918638668954372
1732621174328954600,6.44095458984375,-0.0026630824431777,-0.023301972076296806,0.00452724052593112
1732621174338996000,6.450995849609375,-0.0037283156998455524,-0.030758604407310486,0.006657706573605537
1732621174349037600,6.46103759765625,-0.00585878174751997,-0.035019535571336746,0.010918638668954372
1732621174359079400,6.471079345703125,-0.00585878174751997,-0.030758604407310486,0.0077229393646121025
1732621174369121300,6.481121337890625,-0.010119713842868805,-0.020106272771954536,0.00452724052593112
1732621174379163100,6.4911630859375,-0.012250179424881935,-0.027562905102968216,-0.0007989247678779066
1732621174389205000,6.501205078125,-0.010119713842868805,-0.030758604407310486,-0.0050598569214344025
1732621174399246800,6.511246826171875,-0.0037283156998455524,-0.021171506494283676,-0.0050598569214344025
1732621174409289000,6.5212890625,-0.0026630824431777,-0.012649642303586006,-0.0050598569214344025
1732621174419330800,6.531330810546875,-0.0047935484908521175,-0.010519175790250301,-0.002929390873759985
1732621174429372400,6.541372314453125,-0.00905448105186224,-0.005193010903894901,-0.00719032296910882
1732621174439413800,6.551413818359375,-0.006924014538526535,-0.0009320789249613881,-0.011451254598796368
1732621174449454800,6.561454833984375,-0.0037283156998455524,-0.0009320789249613881,-0.014646953903138638
1732621174459496200,6.57149609375,0.0015978495357558131,-0.005193010903894901,-0.011451254598796368
1732621174469537300,6.581537353515625,0.010119713842868805,-0.011584409512579441,-0.0007989247678779066
1732621174479578400,6.591578369140625,0.013315413147211075,-0.011584409512579441,0.005592473316937685
1732621174489619500,6.601619384765625,0.006924014538526535,-0.010519175790250301,-0.0050598569214344025
1732621174499660800,6.611660888671875,0.0026630824431777,-0.007323476951569319,-0.013581721112132072
1732621174509702000,6.621701904296875,-0.0015978495357558131,0.005459319334477186,-0.015712186694145203
1732621174519743200,6.6317431640625,-0.0015978495357558131,0.018242115154862404,-0.016777420416474342
1732621174529784600,6.64178466796875,0.0015978495357558131,0.022503048181533813,-0.015712186694145203
1732621174539826200,6.651826171875,0.0005326165119186044,0.027829213067889214,-0.013581721112132072
1732621174549867500,6.661867431640625,-0.0015978495357558131,0.033155377954244614,-0.010386021807789803
1732621174559909000,6.6719091796875,-0.0026630824431777,0.036351077258586884,-0.010386021807789803
1732621174569950500,6.681950439453125,-0.0015978495357558131,0.031024912372231483,-0.00399462366476655
1732621174579992000,6.691991943359375,-0.0037283156998455524,0.018242115154862404,0.013049104250967503
1732621174590033700,6.70203369140625,-0.010119713842868805,-0.001997311832383275,0.031158065423369408
1732621174600075300,6.7120751953125,-0.015445878729224205,-0.020106272771954536,0.03861469775438309
1732621174610116600,6.72211669921875,-0.020772043615579605,-0.027562905102968216,0.03967992961406708
1732621174620158200,6.732158203125,-0.027163442224264145,-0.024367205798625946,0.0375494658946991
1732621174630199600,6.742199462890625,-0.027163442224264145,-0.011584409512579441,0.03435376659035683
1732621174640241000,6.752240966796875,-0.025032976642251015,0.0011983871227130294,0.03435376659035683
1732621174650282500,6.762282470703125,-0.027163442224264145,0.005459319334477186,0.03541899845004082
1732621174660324000,6.772323974609375,-0.026098208501935005,0.013981183059513569,0.03648423030972481
1732621174670365400,6.782365478515625,-0.021837277337908745,0.015046416781842709,0.03541899845004082
1732621174680407000,6.792406982421875,-0.020772043615579605,0.0033288532868027687,0.03328853100538254
1732621174690374400,6.80237451171875,-0.029293907806277275,-0.010519175790250301,0.03222329914569855
1732621174700347400,6.812347412109375,-0.030359141528606415,-0.013714875094592571,0.015179570764303207
1732621174710324200,6.82232421875,-0.045272402465343475,-0.005193010903894901,-0.0050598569214344025
1732621174720312000,6.83231201171875,-0.049533337354660034,0.007589785382151604,-0.019973119720816612
1732621174730307300,6.842307373046875,-0.049533337354660034,0.015046416781842709,-0.028494983911514282
1732621174740316700,6.852316650390625,-0.046337638050317764,0.010785484686493874,-0.028494983911514282
1732621174750336300,6.862336181640625,-0.046337638050317764,-0.001997311832383275,-0.016777420416474342
1732621174760371000,6.872370849609375,-0.047402869910001755,-0.013714875094592571,-0.0007989247678779066
1732621174770415600,6.88241552734375,-0.043141938745975494,-0.008388710208237171,0.013049104250967503
1732621174780475000,6.892474853515625,-0.035685304552316666,0.00226362026296556,0.0077229393646121025
1732621174790542300,6.902542236328125,-0.030359141528606415,0.009720250964164734,0.0002663082559593022
1732621174800621600,6.91262158203125,-0.031424373388290405,0.009720250964164734,0.0002663082559593022
1732621174810706000,6.922705810546875,-0.033554840832948685,-0.0009320789249613881,0.00452724052593112
1732621174820798000,6.9327978515625,-0.039946239441633224,-0.008388710208237171,0.015179570764303207
1732621174830895400,6.942895263671875,-0.048468101769685745,-0.012649642303586006,0.014114337973296642
1732621174840995800,6.952995849609375,-0.042076703161001205,-0.008388710208237171,0.00452724052593112
1732621174851096800,6.963096923828125,-0.033554840832948685,-0.0030625448562204838,-0.002929390873759985
1732621174861151700,6.97315185546875,-0.032489608973264694,-0.0030625448562204838,-0.00399462366476655
1732621174871192800,6.98319287109375,-0.028228675946593285,0.0033288532868027687,-0.002929390873759985
1732621174881234000,6.99323388671875,-0.021837277337908745,0.011850717477500439,-0.0061250897124409676
1732621174891275000,7.00327490234375,-0.019706811755895615,0.021437814459204674,-0.008255556225776672
1732621174901316400,7.01331640625,-0.018641578033566475,0.025698747485876083,-0.0050598569214344025
1732621174911357400,7.023357421875,-0.018641578033566475,0.015046416781842709,-0.002929390873759985
1732621174921398500,7.0333984375,-0.017576344311237335,0.006524552125483751,0.0002663082559593022
1732621174931439900,7.04343994140625,-0.01438064593821764,0.00226362026296556,0.006657706573605537
1732621174941481200,7.053481201171875,-0.017576344311237335,-0.004127778112888336,0.011983871459960938
1732621174951522600,7.0635224609375,-0.015445878729224205,-0.016910573467612267,0.010918638668954372
1732621174961564000,7.07356396484375,-0.015445878729224205,-0.022236740216612816,0.0034620072692632675
1732621174971605500,7.08360546875,-0.013315413147211075,-0.010519175790250301,-0.002929390873759985
1732621174981646800,7.093646728515625,-0.00905448105186224,0.004394086077809334,-0.0007989247678779066
1732621174991688400,7.1036884765625,-0.0079892473295331,0.007589785382151604,0.0034620072692632675
1732621175001730000,7.11372998046875,-0.0047935484908521175,0.016111649572849274,0.010918638668954372
1732621175011771600,7.123771728515625,-0.0079892473295331,0.019307348877191544,0.013049104250967503
1732621175021813200,7.133813232421875,-0.0079892473295331,0.015046416781842709,0.016244804486632347
1732621175031854800,7.143854736328125,-0.00585878174751997,0.007589785382151604,0.023701434955000877
1732621175041896700,7.153896728515625,-0.00905448105186224,0.0011983871227130294,0.029027599841356277
1732621175051938300,7.163938232421875,-0.01438064593821764,0.00226362026296556,0.030092833563685417
1732621175061942000,7.17394189453125,-0.01438064593821764,0.007589785382151604,0.031158065423369408
1732621175071942400,7.1839423828125,-0.012250179424881935,0.005459319334477186,0.031158065423369408
1732621175081942000,7.19394189453125,-0.01118494663387537,0.0033288532868027687,0.03435376659035683
1732621175091943400,7.203943359375,-0.0047935484908521175,0.0001331541279796511,0.03435376659035683
1732621175101948200,7.2139482421875,0.0015978495357558131,0.004394086077809334,0.031158065423369408
1732621175111957500,7.22395751953125,0.0015978495357558131,0.009720250964164734,0.029027599841356277
1732621175121972500,7.233972412109375,-0.00585878174751997,0.018242115154862404,0.025831900537014008
1732621175131993900,7.243993896484375,-0.00585878174751997,0.023568280041217804,0.021570969372987747
1732621175142027000,7.254027099609375,-0.0037283156998455524,0.015046416781842709,0.020505735650658607
1732621175152070000,7.26406982421875,-0.00585878174751997,0.004394086077809334,0.019440501928329468
1732621175162120200,7.2741201171875,-0.00585878174751997,0.0011983871227130294,0.019440501928329468
1732621175172176100,7.284176025390625,-0.0079892473295331,0.004394086077809334,0.016244804486632347
1732621175182237200,7.2942373046875,-0.010119713842868805,0.015046416781842709,0.013049104250967503
1732621175192302000,7.304302001953125,-0.01118494663387537,0.016111649572849274,0.011983871459960938
1732621175202369800,7.314369873046875,-0.012250179424881935,0.009720250964164734,0.009853405877947807
1732621175212439300,7.324439208984375,-0.00905448105186224,0.006524552125483751,0.008788172155618668
1732621175222513700,7.334513671875,-0.0026630824431777,0.007589785382151604,0.005592473316937685
1732621175232589800,7.34458984375,0.0015978495357558131,0.019307348877191544,-0.0007989247678779066
1732621175242617300,7.354617431640625,0.0015978495357558131,0.027829213067889214,-0.0018641578499227762
1732621175252644900,7.364644775390625,-0.0015978495357558131,0.029959678649902344,0.0002663082559593022
1732621175262673000,7.3746728515625,-0.0037283156998455524,0.022503048181533813,0.00452724052593112
1732621175272706800,7.384706787109375,-0.006924014538526535,0.020372580736875534,0.008788172155618668
1732621175282746600,7.39474658203125,-0.0079892473295331,0.019307348877191544,0.013049104250967503
1732621175292791600,7.40479150390625,-0.0026630824431777,0.017176883295178413,0.016244804486632347
1732621175302839800,7.41483984375,-0.0005326165119186044,0.020372580736875534,0.014114337973296642
1732621175312888000,7.42488818359375,0.0047935484908521175,0.03209014609456062,0.0077229393646121025
1732621175322934800,7.434934814453125,0.0037283156998455524,0.040612008422613144,0.0002663082559593022
1732621175332977700,7.444977783203125,-0.0015978495357558131,0.043807707726955414,-0.0018641578499227762
1732621175343017700,7.455017822265625,-0.0026630824431777,0.040612008422613144,0.005592473316937685
1732621175353058000,7.46505810546875,-0.0047935484908521175,0.03209014609456062,0.015179570764303207
1732621175363098000,7.47509814453125,-0.0015978495357558131,0.023568280041217804,0.023701434955000877
1732621175373138400,7.485138427734375,0.00585878174751997,0.022503048181533813,0.029027599841356277
1732621175383179000,7.495178955078125,0.012250179424881935,0.025698747485876083,0.03328853100538254
1732621175393224400,7.505224365234375,0.01438064593821764,0.024633513763546944,0.03541899845004082
1732621175403266300,7.515266357421875,0.015445878729224205,0.022503048181533813,0.026897134259343147
1732621175413312500,7.5253125,0.015445878729224205,0.020372580736875534,0.011983871459960938
1732621175423350300,7.535350341796875,0.016511112451553345,0.024633513763546944,-0.00719032296910882
1732621175433393000,7.545392822265625,0.01438064593821764,0.031024912372231483,-0.024234050884842873
1732621175443431700,7.555431640625,0.006924014538526535,0.031024912372231483,-0.023168819025158882
1732621175453475300,7.565475341796875,0.0037283156998455524,0.03528584539890289,-0.014646953903138638
1732621175463514600,7.5755146484375,0.00585878174751997,0.03528584539890289,-0.013581721112132072
1732621175473558500,7.58555859375,0.01118494663387537,0.03209014609456062,-0.014646953903138638
1732621175483597600,7.59559765625,0.016511112451553345,0.027829213067889214,-0.00719032296910882
1732621175493641500,7.605641357421875,0.01438064593821764,0.022503048181533813,0.00452724052593112
1732621175503680300,7.61568017578125,0.015445878729224205,0.025698747485876083,0.010918638668954372
1732621175513724000,7.625723876953125,0.013315413147211075,0.031024912372231483,0.009853405877947807
1732621175523763000,7.635762939453125,0.012250179424881935,0.029959678649902344,0.011983871459960938
1732621175533806800,7.645806884765625,0.012250179424881935,0.020372580736875534,0.017310036346316338
1732621175543855400,7.65585546875,0.0079892473295331,0.007589785382151604,0.027962366119027138
1732621175553907700,7.66590771484375,0.012250179424881935,0.008655018173158169,0.03328853100538254
1732621175563964000,7.6759638671875,0.00905448105186224,0.009720250964164734,0.03648423030972481
1732621175574022700,7.686022705078125,0.0079892473295331,0.020372580736875534,0.025831900537014008
1732621175584083500,7.69608349609375,0.00585878174751997,0.03209014609456062,0.010918638668954372
1732621175594145300,7.706145263671875,0.0037283156998455524,0.03848154470324516,-0.0050598569214344025
1732621175604207600,7.71620751953125,0.00585878174751997,0.040612008422613144,-0.016777420416474342
1732621175614256000,7.726256103515625,0.00585878174751997,0.037416309118270874,-0.018907885998487473
1732621175624297000,7.736296875,0.0047935484908521175,0.026763979345560074,-0.0050598569214344025
1732621175634338000,7.746338134765625,0.00905448105186224,0.013981183059513569,0.019440501928329468
1732621175644379000,7.75637890625,0.0079892473295331,-0.005193010903894901,0.04607132822275162
1732621175654419700,7.766419677734375,0.01118494663387537,-0.0009320789249613881,0.05246272683143616
1732621175664460800,7.776460693359375,0.0015978495357558131,0.007589785382151604,0.05139749497175217
1732621175674502000,7.786501953125,-0.0079892473295331,0.020372580736875534,0.03967992961406708
1732621175684543000,7.79654296875,-0.00585878174751997,0.028894444927573204,0.03222329914569855
1732621175694584000,7.806583984375,-0.0037283156998455524,0.028894444927573204,0.03328853100538254
1732621175704625400,7.81662548828125,-0.0037283156998455524,0.017176883295178413,0.04394086077809334
1732621175714666800,7.826666748046875,-0.00585878174751997,0.00226362026296556,0.05565842613577843
1732621175724708000,7.8367080078125,-0.0037283156998455524,-0.006258244160562754,0.06311506032943726
1732621175734749700,7.846749755859375,-0.0026630824431777,-0.005193010903894901,0.06631075590848923
1732621175744791300,7.856791259765625,0.0015978495357558131,0.0033288532868027687,0.06737598776817322
1732621175754833000,7.8668330078125,0.0026630824431777,0.006524552125483751,0.06844121962785721
1732621175764874500,7.87687451171875,0.0026630824431777,0.016111649572849274,0.06524552404880524
1732621175774916000,7.886916015625,0.0015978495357558131,0.025698747485876083,0.06418029218912125
1732621175784958000,7.8969580078125,-0.0005326165119186044,0.034220609813928604,0.06737598776817322
1732621175794999600,7.90699951171875,-0.0015978495357558131,0.03954677656292915,0.07270215451717377
1732621175805041400,7.91704150390625,-0.0047935484908521175,0.043807707726955414,0.07802832126617432
1732621175815083000,7.9270830078125,-0.0047935484908521175,0.040612008422613144,0.07163692265748978
1732621175825004500,7.937004638671875,-0.0026630824431777,0.040612008422613144,0.06098458915948868
1732621175834935600,7.946935546875,0.0005326165119186044,0.05659050494432449,0.03861469775438309
1732621175844880400,7.95688037109375,0.00585878174751997,0.06511236727237701,0.020505735650658607
1732621175854841900,7.966841796875,0.012250179424881935,0.066177599132061,0.00452724052593112
1732621175864823000,7.976822998046875,0.00585878174751997,0.0555252730846405,-0.017842652276158333
1732621175874825000,7.986824951171875,-0.0037283156998455524,0.050199106335639954,-0.03275591507554054
1732621175884849200,7.99684912109375,-0.010119713842868805,0.043807707726955414,-0.03169068321585655
1732621175894894600,8.00689453125,-0.019706811755895615,0.031024912372231483,-0.013581721112132072
1732621175904960800,8.016960693359374,-0.029293907806277275,0.025698747485876083,-0.00399462366476655
1732621175915045600,8.027045654296876,-0.029293907806277275,0.03528584539890289,-0.008255556225776672
1732621175925142000,8.03714208984375,-0.018641578033566475,0.0555252730846405,-0.016777420416474342
1732621175935252200,8.047252197265625,-0.012250179424881935,0.041677240282297134,-0.0061250897124409676
1732621175945372400,8.057372314453126,-0.0037283156998455524,0.018242115154862404,0.019440501928329468
1732621175955499800,8.067499755859375,-0.00905448105186224,-0.015845341607928276,0.04287562891840935
1732621175965630000,8.0776298828125,-0.019706811755895615,-0.037150003015995026,0.05459319427609444
1732621175975745300,8.087745361328125,-0.023967742919921875,-0.033954303711652756,0.04607132822275162
1732621175985787000,8.097786865234376,-0.025032976642251015,-0.020106272771954536,0.021570969372987747
1732621175995828200,8.107828125,-0.023967742919921875,-0.014780107885599136,0.00133154122158885
1732621176005869600,8.11786962890625,-0.00585878174751997,0.005459319334477186,-0.00719032296910882
1732621176015910700,8.12791064453125,0.006924014538526535,0.009720250964164734,-0.022103585302829742
1732621176025951700,8.13795166015625,0.017576344311237335,0.023568280041217804,-0.026364516466856003
1732621176035992800,8.147992919921874,0.017576344311237335,0.027829213067889214,-0.023168819025158882
1732621176046034200,8.1580341796875,0.016511112451553345,0.022503048181533813,-0.015712186694145203
1732621176056075300,8.1680751953125,0.012250179424881935,0.009720250964164734,-0.012516488321125507
1732621176066116400,8.178116455078126,0.010119713842868805,0.0011983871227130294,-0.015712186694145203
1732621176076157700,8.18815771484375,0.010119713842868805,0.00226362026296556,-0.018907885998487473
1732621176086079700,8.198079833984375,0.0047935484908521175,0.006524552125483751,-0.017842652276158333
1732621176096011500,8.208011474609375,-0.0026630824431777,0.009720250964164734,-0.023168819025158882
1732621176105957000,8.21795703125,-0.012250179424881935,0.005459319334477186,-0.025299284607172012
1732621176115919400,8.22791943359375,-0.012250179424881935,0.0011983871227130294,-0.019973119720816612
1732621176125900800,8.23790087890625,-0.012250179424881935,0.00226362026296556,-0.011451254598796368
1732621176135903500,8.247903564453125,-0.010119713842868805,0.0011983871227130294,0.0002663082559593022
1732621176145927700,8.257927734375,-0.00585878174751997,-0.0009320789249613881,0.008788172155618668
1732621176155973600,8.2679736328125,-0.00585878174751997,-0.007323476951569319,0.011983871459960938
1732621176166039800,8.278039794921876,-0.0015978495357558131,-0.008388710208237171,0.015179570764303207
1732621176176124700,8.288124755859375,-0.0026630824431777,-0.009453942999243736,0.015179570764303207
1732621176186225700,8.2982255859375,-0.0079892473295331,-0.007323476951569319,0.005592473316937685
1732621176196340000,8.308340087890626,-0.012250179424881935,0.0011983871227130294,-0.011451254598796368
1732621176206463700,8.318463623046876,-0.015445878729224205,0.019307348877191544,-0.03169068321585655
1732621176216593700,8.32859375,-0.016511112451553345,0.029959678649902344,-0.04234301298856735
1732621176226725600,8.3387255859375,-0.015445878729224205,0.033155377954244614,-0.03488638252019882
1732621176236821200,8.3488212890625,-0.0079892473295331,0.020372580736875534,-0.014646953903138638
1732621176246862600,8.358862548828125,0.0015978495357558131,0.0033288532868027687,0.010918638668954372
1732621176256904000,8.368904052734376,0.00905448105186224,-0.011584409512579441,0.024766668677330017
1732621176266945300,8.3789453125,0.00585878174751997,-0.011584409512579441,0.019440501928329468
1732621176276986600,8.388986572265624,-0.0005326165119186044,-0.007323476951569319,-0.00399462366476655
1732621176287028000,8.399028076171875,-0.00585878174751997,0.010785484686493874,-0.028494983911514282
1732621176297069600,8.409069580078125,-0.01118494663387537,0.03528584539890289,-0.04234301298856735
1732621176307111000,8.41911083984375,-0.01118494663387537,0.04593817517161369,-0.04660394415259361
1732621176317152300,8.42915234375,-0.0047935484908521175,0.029959678649902344,-0.04340824484825134
1732621176327193600,8.439193603515625,0.006924014538526535,0.016111649572849274,-0.03808208182454109
1732621176337114400,8.4491142578125,0.012250179424881935,0.0033288532868027687,-0.027429750189185143
1732621176347044900,8.459044921875,0.012250179424881935,0.0011983871227130294,-0.008255556225776672
1732621176356989000,8.468989013671875,0.010119713842868805,0.013981183059513569,-0.0018641578499227762
1732621176366950100,8.4789501953125,0.0047935484908521175,0.022503048181533813,-0.022103585302829742
1732621176376930800,8.488930908203125,0.0015978495357558131,0.023568280041217804,-0.04021254554390907
1732621176386932700,8.4989326171875,0.0005326165119186044,0.03209014609456062,-0.04127778112888336
1732621176396956700,8.508956787109375,-0.0037283156998455524,0.021437814459204674,-0.019973119720816612
1732621176407002400,8.51900244140625,-0.0047935484908521175,-0.004127778112888336,0.010918638668954372
1732621176417068500,8.529068603515626,-0.0047935484908521175,-0.027562905102968216,0.025831900537014008
1732621176427153700,8.539153564453125,-0.0047935484908521175,-0.025432437658309937,0.018375270068645477
1732621176437253600,8.549253662109376,-0.0015978495357558131,-0.009453942999243736,0.005592473316937685
1732621176447367200,8.5593671875,-0.0015978495357558131,0.005459319334477186,-0.0018641578499227762
1732621176457490700,8.56949072265625,0.0015978495357558131,0.009720250964164734,-0.0007989247678779066
1732621176467620600,8.57962060546875,0.00585878174751997,0.0001331541279796511,0.006657706573605537
1732621176477752800,8.5897529296875,0.006924014538526535,-0.007323476951569319,0.017310036346316338
1732621176487855900,8.59985595703125,0.00585878174751997,-0.005193010903894901,0.025831900537014008
1732621176497897200,8.609897216796876,0.0005326165119186044,-0.0009320789249613881,0.022636201232671738
1732621176507938600,8.6199384765625,-0.0026630824431777,0.0011983871227130294,0.0034620072692632675
1732621176517980000,8.62997998046875,-0.0047935484908521175,-0.0030625448562204838,-0.024234050884842873
1732621176528021200,8.640021240234375,-0.01118494663387537,0.007589785382151604,-0.04340824484825134
1732621176538046000,8.6500458984375,-0.01438064593821764,0.021437814459204674,-0.05299534276127815
1732621176548072000,8.660072021484375,-0.018641578033566475,0.023568280041217804,-0.0476691760122776
1732621176558099700,8.670099609375,-0.022902509197592735,0.017176883295178413,-0.027429750189185143
1732621176568129800,8.6801298828125,-0.018641578033566475,0.011850717477500439,-0.0018641578499227762
1732621176578162700,8.69016259765625,-0.015445878729224205,0.0033288532868027687,0.021570969372987747
1732621176588198400,8.700198486328125,-0.015445878729224205,-0.001997311832383275,0.04500609636306763
1732621176598237200,8.7102373046875,-0.015445878729224205,0.0011983871227130294,0.06524552404880524
1732621176608279000,8.720279052734375,-0.012250179424881935,0.0033288532868027687,0.07376738637685776
1732621176618323700,8.73032373046875,-0.0047935484908521175,0.0011983871227130294,0.06311506032943726
1732621176628371200,8.74037109375,-0.0005326165119186044,0.006524552125483751,0.031158065423369408
1732621176638420700,8.750420654296875,-0.006924014538526535,-0.0030625448562204838,0.005592473316937685
1732621176648472300,8.760472412109374,-0.012250179424881935,-0.009453942999243736,-0.002929390873759985
1732621176658525200,8.770525146484376,-0.01438064593821764,-0.021171506494283676,-0.021038351580500603
1732621176668579000,8.7805791015625,-0.010119713842868805,-0.007323476951569319,-0.05086487531661987
1732621176678633000,8.790633056640624,-0.0047935484908521175,0.005459319334477186,-0.07110430300235748
1732621176688683300,8.800683349609375,-0.0005326165119186044,0.011850717477500439,-0.07216953486204147
1732621176698724900,8.810724853515625,0.00585878174751997,0.006524552125483751,-0.05938674136996269
1732621176708766200,8.82076611328125,0.015445878729224205,-0.024367205798625946,-0.03382114693522453
1732621176718807300,8.830807373046875,0.015445878729224205,-0.058454662561416626,-0.015712186694145203
1732621176728848400,8.840848388671875,0.018641578033566475,-0.06910699605941772,-0.002929390873759985
1732621176738889500,8.850889404296876,0.018641578033566475,-0.06378082931041718,-0.0061250897124409676
1732621176748930800,8.860930908203125,0.015445878729224205,-0.048867564648389816,-0.0061250897124409676
1732621176758972000,8.870971923828124,0.015445878729224205,-0.060585130006074905,0.017310036346316338
1732621176769013000,8.881012939453125,0.010119713842868805,-0.10958584398031235,0.03861469775438309
1732621176779054300,8.891054443359375,0.0026630824431777,-0.1042596846818924,0.024766668677330017
1732621176789095700,8.901095703125,0.00585878174751997,-0.06484606117010117,-0.0061250897124409676
1732621176799137000,8.911136962890625,0.00585878174751997,-0.025432437658309937,-0.03808208182454109
1732621176809178400,8.921178466796874,0.0005326165119186044,-0.0009320789249613881,-0.04553871229290962
1732621176819220000,8.931219970703125,-0.0005326165119186044,0.0033288532868027687,-0.0370168462395668
1732621176829261300,8.94126123046875,0.0079892473295331,0.0011983871227130294,-0.03275591507554054
1732621176839303000,8.951302978515624,0.0047935484908521175,-0.005193010903894901,-0.011451254598796368
1732621176849344500,8.961344482421875,0.00905448105186224,-0.008388710208237171,0.017310036346316338
1732621176859385900,8.9713857421875,0.01438064593821764,-0.012649642303586006,0.03861469775438309
1732621176869427000,8.981427001953126,0.00905448105186224,-0.011584409512579441,0.05033225938677788
1732621176879468500,8.991468505859375,0.00585878174751997,-0.0009320789249613881,0.05033225938677788
1732621176889510100,9.00151025390625,0.00585878174751997,0.027829213067889214,0.04181039705872536
1732621176899551500,9.011551513671876,0.00585878174751997,0.053394805639982224,0.03328853100538254
1732621176909593000,9.021593017578125,0.0079892473295331,0.06511236727237701,0.03435376659035683
1732621176919634700,9.031634765625,0.01118494663387537,0.04593817517161369,0.04181039705872536
1732621176929676000,9.041676025390625,0.0079892473295331,0.03848154470324516,0.05033225938677788
1732621176939717400,9.05171728515625,0.0005326165119186044,0.04593817517161369,0.0482017956674099
1732621176949758500,9.061758544921876,-0.0037283156998455524,0.044872939586639404,0.03541899845004082
1732621176959799600,9.071799560546875,-0.0079892473295331,0.044872939586639404,0.022636201232671738
1732621176969841000,9.0818408203125,-0.0079892473295331,0.036351077258586884,0.011983871459960938
1732621176979882200,9.09188232421875,-0.01438064593821764,0.028894444927573204,0.010918638668954372
1732621176989923300,9.10192333984375,-0.018641578033566475,0.028894444927573204,0.013049104250967503
1732621176999964700,9.111964599609376,-0.017576344311237335,0.03209014609456062,0.011983871459960938
1732621177010006000,9.122006103515625,-0.016511112451553345,0.034220609813928604,0.011983871459960938
1732621177020047000,9.132047119140625,-0.01438064593821764,0.037416309118270874,0.009853405877947807
1732621177030088400,9.14208837890625,-0.0079892473295331,0.048068638890981674,0.0077229393646121025
1732621177040129800,9.1521298828125,0.0037283156998455524,0.05978620424866676,0.0077229393646121025
1732621177050054400,9.162054443359375,-0.0079892473295331,0.048068638890981674,0.011983871459960938
1732621177059988500,9.171988525390624,-0.006924014538526535,0.03528584539890289,0.018375270068645477
1732621177069935900,9.181935791015626,-0.017576344311237335,0.019307348877191544,0.023701434955000877
1732621177079900000,9.19189990234375,-0.015445878729224205,0.016111649572849274,0.021570969372987747
1732621177089882600,9.201882568359375,-0.017576344311237335,0.021437814459204674,0.019440501928329468
1732621177099886000,9.211885986328125,-0.01118494663387537,0.028894444927573204,0.0034620072692632675
1732621177109908700,9.22190869140625,-0.012250179424881935,0.026763979345560074,-0.013581721112132072
1732621177119952600,9.23195263671875,-0.018641578033566475,0.021437814459204674,-0.021038351580500603
1732621177130012200,9.24201220703125,-0.020772043615579605,0.024633513763546944,-0.017842652276158333
1732621177140090400,9.25209033203125,-0.022902509197592735,0.026763979345560074,-0.0050598569214344025
1732621177150180600,9.2621806640625,-0.022902509197592735,0.021437814459204674,0.010918638668954372
1732621177160285000,9.272284912109376,-0.018641578033566475,0.008655018173158169,0.020505735650658607
1732621177170395600,9.282395751953125,-0.018641578033566475,0.006524552125483751,0.017310036346316338
1732621177180514600,9.2925146484375,-0.019706811755895615,0.009720250964164734,0.00452724052593112
1732621177190633200,9.30263330078125,-0.018641578033566475,0.009720250964164734,-0.012516488321125507
1732621177200753700,9.312753662109374,-0.012250179424881935,0.015046416781842709,-0.019973119720816612
1732621177210714600,9.322714599609375,-0.00905448105186224,0.017176883295178413,-0.017842652276158333
1732621177220683500,9.33268359375,-0.01118494663387537,0.017176883295178413,-0.009320789016783237
1732621177230658300,9.342658203125,-0.0079892473295331,0.009720250964164734,-0.009320789016783237
1732621177240646100,9.352646240234375,-0.0037283156998455524,0.0011983871227130294,-0.0018641578499227762
1732621177250648600,9.362648681640625,-0.0015978495357558131,-0.010519175790250301,0.008788172155618668
1732621177260666600,9.37266650390625,0.00585878174751997,-0.011584409512579441,0.018375270068645477
1732621177270700500,9.382700439453124,0.010119713842868805,-0.0030625448562204838,0.014114337973296642
1732621177280750000,9.39275,0.01118494663387537,0.006524552125483751,0.0034620072692632675
1732621177290814200,9.402814208984376,0.010119713842868805,0.007589785382151604,-0.00399462366476655
1732621177300891400,9.412891357421875,0.012250179424881935,0.009720250964164734,-0.00719032296910882
1732621177310979800,9.422979736328125,0.012250179424881935,0.013981183059513569,-0.010386021807789803
1732621177321077200,9.4330771484375,0.012250179424881935,0.010785484686493874,-0.009320789016783237
1732621177331180500,9.4431806640625,0.012250179424881935,0.005459319334477186,-0.0061250897124409676
1732621177341287400,9.453287353515625,0.013315413147211075,0.0001331541279796511,0.00133154122158885
1732621177351395300,9.463395263671876,0.01118494663387537,-0.004127778112888336,0.013049104250967503
1732621177361455900,9.473455810546875,0.015445878729224205,0.00226362026296556,0.018375270068645477
1732621177371497000,9.4834970703125,0.023967742919921875,0.008655018173158169,0.016244804486632347
1732621177381537800,9.493537841796876,0.022902509197592735,0.020372580736875534,0.016244804486632347
1732621177391578600,9.50357861328125,0.017576344311237335,0.022503048181533813,0.014114337973296642
1732621177401619500,9.513619384765626,0.01118494663387537,0.021437814459204674,0.009853405877947807
1732621177411660500,9.52366064453125,0.0037283156998455524,0.023568280041217804,0.00452724052593112
1732621177421701400,9.533701416015624,-0.0026630824431777,0.015046416781842709,0.0034620072692632675
1732621177431742500,9.543742431640625,-0.010119713842868805,0.006524552125483751,0.006657706573605537
1732621177441783800,9.55378369140625,-0.00905448105186224,-0.0009320789249613881,0.011983871459960938
1732621177451825200,9.5638251953125,-0.0015978495357558131,-0.014780107885599136,0.025831900537014008
1732621177461866500,9.573866455078125,-0.0015978495357558131,-0.031823836266994476,0.031158065423369408
1732621177471907800,9.583907958984375,-0.0026630824431777,-0.029693370684981346,0.025831900537014008
1732621177481942000,9.59394189453125,-0.010119713842868805,-0.017975807189941406,0.015179570764303207
1732621177491942100,9.603942138671876,-0.018641578033566475,-0.014780107885599136,0.011983871459960938
1732621177501942000,9.61394189453125,-0.023967742919921875,-0.019041040912270546,0.020505735650658607
1732621177511942400,9.6239423828125,-0.021837277337908745,-0.022236740216612816,0.029027599841356277
1732621177521945000,9.633945068359376,-0.021837277337908745,-0.024367205798625946,0.03435376659035683
1732621177531951400,9.643951416015625,-0.020772043615579605,-0.022236740216612816,0.03541899845004082
1732621177541962500,9.65396240234375,-0.017576344311237335,-0.024367205798625946,0.03328853100538254
1732621177551979800,9.663979736328125,-0.012250179424881935,-0.019041040912270546,0.029027599841356277
1732621177562008300,9.67400830078125,-0.00585878174751997,-0.014780107885599136,0.03222329914569855
1732621177572047600,9.684047607421874,-0.0026630824431777,-0.017975807189941406,0.03861469775438309
1732621177582095000,9.69409521484375,0.0015978495357558131,-0.020106272771954536,0.04287562891840935
1732621177592149200,9.704149169921875,0.006924014538526535,-0.019041040912270546,0.03861469775438309
1732621177602208300,9.714208251953124,0.00585878174751997,-0.015845341607928276,0.029027599841356277
1732621177612271600,9.724271728515625,0.0005326165119186044,-0.011584409512579441,0.020505735650658607
1732621177622337500,9.734337646484375,0.0005326165119186044,0.00226362026296556,0.0077229393646121025
1732621177632405800,9.74440576171875,0.0015978495357558131,0.015046416781842709,-0.010386021807789803
1732621177642479400,9.754479248046875,0.0047935484908521175,0.011850717477500439,-0.014646953903138638
1732621177652556000,9.76455615234375,0.01118494663387537,0.005459319334477186,-0.010386021807789803
1732621177662576600,9.77457666015625,0.012250179424881935,0.006524552125483751,-0.0061250897124409676
1732621177672598000,9.784597900390626,0.010119713842868805,0.012915950268507004,-0.009320789016783237
1732621177682621000,9.794620849609375,0.0079892473295331,0.017176883295178413,-0.015712186694145203
1732621177692651000,9.804651123046876,0.00585878174751997,0.021437814459204674,-0.014646953903138638
1732621177702688300,9.814688232421876,0.00585878174751997,0.018242115154862404,-0.009320789016783237
1732621177712727800,9.824727783203125,0.0037283156998455524,0.016111649572849274,-0.0050598569214344025
1732621177722773500,9.8347734375,-0.0005326165119186044,0.020372580736875534,-0.0050598569214344025
1732621177732822500,9.844822509765624,-0.0047935484908521175,0.020372580736875534,-0.00719032296910882
1732621177742873300,9.854873291015625,-0.00585878174751997,0.020372580736875534,-0.014646953903138638
1732621177752925000,9.864925048828125,-0.0047935484908521175,0.020372580736875534,-0.021038351580500603
1732621177762977000,9.87497705078125,-0.0026630824431777,0.015046416781842709,-0.015712186694145203
1732621177773029400,9.885029296875,-0.006924014538526535,0.0033288532868027687,-0.00719032296910882
1732621177783073000,9.895072998046874,-0.018641578033566475,-0.0009320789249613881,-0.0018641578499227762
1732621177793114400,9.9051142578125,-0.019706811755895615,0.00226362026296556,0.0034620072692632675
1732621177803155700,9.91515576171875,-0.020772043615579605,0.0033288532868027687,0.011983871459960938
1732621177813202000,9.925201904296875,-0.013315413147211075,0.007589785382151604,0.014114337973296642
1732621177823238700,9.93523876953125,-0.010119713842868805,0.009720250964164734,0.016244804486632347
1732621177833280300,9.9452802734375,-0.01118494663387537,0.008655018173158169,0.020505735650658607
1732621177843321300,9.9553212890625,-0.019706811755895615,-0.004127778112888336,0.029027599841356277
1732621177853367300,9.9653671875,-0.030359141528606415,0.00226362026296556,0.030092833563685417
1732621177863404000,9.975404052734374,-0.034620072692632675,0.016111649572849274,0.016244804486632347
1732621177873446000,9.98544580078125,-0.025032976642251015,0.020372580736875534,0.0002663082559593022
1732621177883486700,9.99548681640625,-0.0047935484908521175,0.006524552125483751,0.0002663082559593022
1732621177893532700,10.00553271484375,0.0015978495357558131,-0.005193010903894901,0.010918638668954372
1732621177903569700,10.015569580078125,-0.00585878174751997,-0.009453942999243736,0.006657706573605537
1732621177913611500,10.025611572265625,-0.01118494663387537,0.007589785382151604,-0.0050598569214344025
1732621177923652400,10.03565234375,-0.015445878729224205,0.017176883295178413,-0.013581721112132072
1732621177933698000,10.045697998046874,-0.013315413147211075,0.012915950268507004,-0.00399462366476655
1732621177943748000,10.055748046875,-0.010119713842868805,-0.0030625448562204838,0.008788172155618668
1732621177953802200,10.06580224609375,-0.012250179424881935,-0.012649642303586006,0.013049104250967503
1732621177963859500,10.075859375,-0.01438064593821764,-0.010519175790250301,0.006657706573605537
1732621177973919200,10.085919189453126,-0.016511112451553345,-0.001997311832383275,-0.002929390873759985
1732621177983980500,10.09598046875,-0.018641578033566475,-0.0009320789249613881,-0.0018641578499227762
1732621177994042600,10.106042724609376,-0.017576344311237335,-0.006258244160562754,0.0077229393646121025
1732621178004103700,10.116103759765625,-0.018641578033566475,-0.014780107885599136,0.014114337973296642
1732621178014145000,10.12614501953125,-0.018641578033566475,-0.019041040912270546,0.018375270068645477
1732621178024186400,10.136186279296876,-0.01438064593821764,-0.012649642303586006,0.017310036346316338
1732621178034227700,10.146227783203125,-0.012250179424881935,-0.0030625448562204838,0.0077229393646121025
1732621178044269000,10.15626904296875,-0.01438064593821764,0.004394086077809334,0.0002663082559593022
1732621178054310400,10.166310302734376,-0.020772043615579605,0.0011983871227130294,0.0002663082559593022
1732621178064351700,10.176351806640625,-0.027163442224264145,-0.006258244160562754,0.009853405877947807
1732621178074393000,10.18639306640625,-0.026098208501935005,-0.009453942999243736,0.016244804486632347
1732621178084434400,10.196434326171875,-0.018641578033566475,-0.005193010903894901,0.013049104250967503
1732621178094475800,10.206475830078125,-0.0079892473295331,-0.004127778112888336,0.010918638668954372
1732621178104517000,10.21651708984375,-0.0015978495357558131,-0.009453942999243736,0.013049104250967503
1732621178114558500,10.226558349609375,0.0005326165119186044,-0.004127778112888336,0.009853405877947807
1732621178124600000,10.23660009765625,-0.0037283156998455524,-0.0030625448562204838,0.0002663082559593022
1732621178134641400,10.246641357421876,-0.010119713842868805,-0.005193010903894901,-0.008255556225776672
1732621178144682800,10.256682861328125,-0.010119713842868805,0.0001331541279796511,-0.008255556225776672
1732621178154724000,10.26672412109375,-0.00905448105186224,0.0001331541279796511,-0.0018641578499227762
1732621178164765400,10.276765380859375,-0.006924014538526535,-0.0009320789249613881,0.008788172155618668
1732621178174806800,10.286806884765625,-0.0026630824431777,0.006524552125483751,0.011983871459960938
1732621178184848100,10.29684814453125,-0.0037283156998455524,0.009720250964164734,0.005592473316937685
1732621178194889500,10.306889404296875,-0.0047935484908521175,0.007589785382151604,0.005592473316937685
1732621178204930800,10.316930908203124,-0.00585878174751997,0.004394086077809334,0.016244804486632347
1732621178214972200,10.32697216796875,-0.01118494663387537,-0.001997311832383275,0.027962366119027138
1732621178225013500,10.337013427734375,-0.016511112451553345,-0.007323476951569319,0.03861469775438309
1732621178235054800,10.347054931640624,-0.015445878729224205,-0.014780107885599136,0.03861469775438309
1732621178245096200,10.35709619140625,-0.016511112451553345,-0.021171506494283676,0.03648423030972481
1732621178255137500,10.367137451171875,-0.017576344311237335,-0.023301972076296806,0.03861469775438309
1732621178265179000,10.377178955078126,-0.01438064593821764,-0.027562905102968216,0.03541899845004082
1732621178275100700,10.3871005859375,-0.013315413147211075,-0.024367205798625946,0.0375494658946991
1732621178285032200,10.3970322265625,-0.015445878729224205,-0.017975807189941406,0.04181039705872536
1732621178294977000,10.40697705078125,-0.018641578033566475,-0.022236740216612816,0.04394086077809334
1732621178304939000,10.41693896484375,-0.021837277337908745,-0.026497671380639076,0.04287562891840935
1732621178314920200,10.426920166015625,-0.025032976642251015,-0.022236740216612816,0.04074516147375107
1732621178324922600,10.436922607421875,-0.026098208501935005,-0.017975807189941406,0.03648423030972481
1732621178334942500,10.4469423828125,-0.026098208501935005,-0.016910573467612267,0.03222329914569855
1732621178344984300,10.456984375,-0.027163442224264145,-0.023301972076296806,0.03328853100538254
1732621178355047200,10.467047119140625,-0.029293907806277275,-0.028628136962652206,0.04074516147375107
1732621178365129500,10.47712939453125,-0.029293907806277275,-0.028628136962652206,0.04607132822275162
1732621178375228400,10.487228515625,-0.025032976642251015,-0.026497671380639076,0.0482017956674099
1732621178385341400,10.497341552734374,-0.020772043615579605,-0.027562905102968216,0.04713656008243561
1732621178395465000,10.50746484375,-0.018641578033566475,-0.025432437658309937,0.04074516147375107
1732621178405595100,10.51759521484375,-0.017576344311237335,-0.016910573467612267,0.026897134259343147
1732621178415728400,10.527728271484374,-0.018641578033566475,-0.009453942999243736,0.020505735650658607
1732621178425841400,10.53784130859375,-0.016511112451553345,-0.005193010903894901,0.020505735650658607
1732621178435882500,10.547882568359375,-0.021837277337908745,-0.010519175790250301,0.025831900537014008
1732621178445923800,10.557923828125,-0.018641578033566475,-0.013714875094592571,0.031158065423369408
1732621178455965000,10.56796484375,-0.01438064593821764,-0.011584409512579441,0.030092833563685417
1732621178466006000,10.578006103515625,-0.015445878729224205,-0.009453942999243736,0.021570969372987747
1732621178476047000,10.588047119140626,-0.017576344311237335,0.00226362026296556,0.008788172155618668
1732621178486088400,10.59808837890625,-0.019706811755895615,0.018242115154862404,-0.0018641578499227762
1732621178496129500,10.608129638671874,-0.020772043615579605,0.021437814459204674,-0.00399462366476655
1732621178506171000,10.6181708984375,-0.020772043615579605,0.015046416781842709,0.00133154122158885
1732621178516212200,10.628212158203125,-0.01438064593821764,0.009720250964164734,0.009853405877947807
1732621178526253600,10.638253662109374,-0.010119713842868805,0.009720250964164734,0.009853405877947807
1732621178536295200,10.648295166015625,-0.010119713842868805,0.009720250964164734,0.009853405877947807
1732621178546336800,10.658336669921875,-0.006924014538526535,0.011850717477500439,0.015179570764303207
1732621178556378000,10.668378173828126,-0.0015978495357558131,0.017176883295178413,0.017310036346316338
1732621178566419700,10.678419677734375,-0.0015978495357558131,0.012915950268507004,0.017310036346316338
1732621178576461300,10.68846142578125,-0.0015978495357558131,0.00226362026296556,0.0077229393646121025
1732621178586453500,10.69845361328125,-0.0015978495357558131,0.0011983871227130294,-0.0018641578499227762
1732621178596449500,10.708449462890625,-0.0037283156998455524,0.004394086077809334,0.0002663082559593022
1732621178606451200,10.718451171875,-0.0026630824431777,0.0001331541279796511,0.015179570764303207
1732621178616460000,10.7284599609375,-0.0047935484908521175,-0.0030625448562204838,0.027962366119027138
1732621178626476500,10.7384765625,-0.0015978495357558131,0.0011983871227130294,0.023701434955000877
1732621178636502000,10.748501953125,0.006924014538526535,0.006524552125483751,0.011983871459960938
1732621178646536200,10.7585361328125,0.013315413147211075,0.010785484686493874,0.0077229393646121025
1732621178656579300,10.768579345703126,0.013315413147211075,-0.001997311832383275,0.014114337973296642
1732621178666631000,10.778630859375,0.006924014538526535,-0.016910573467612267,0.021570969372987747
1732621178676690400,10.7886904296875,0.0015978495357558131,-0.021171506494283676,0.023701434955000877
1732621178686756400,10.79875634765625,-0.0005326165119186044,-0.0030625448562204838,0.024766668677330017
1732621178696827600,10.80882763671875,0.0026630824431777,-0.012649642303586006,0.016244804486632347
1732621178706903000,10.818903076171875,0.0015978495357558131,-0.012649642303586006,0.025831900537014008
1732621178716981000,10.82898095703125,-0.0005326165119186044,-0.008388710208237171,0.03222329914569855
1732621178727060000,10.83906005859375,-0.0015978495357558131,-0.0009320789249613881,0.026897134259343147
1732621178737123800,10.849123779296875,-0.0005326165119186044,0.010785484686493874,0.014114337973296642
1732621178747165400,10.85916552734375,-0.0026630824431777,0.020372580736875534,0.0002663082559593022
1732621178757206800,10.869206787109375,-0.0037283156998455524,0.023568280041217804,-0.010386021807789803
1732621178767248100,10.879248046875,-0.0037283156998455524,0.026763979345560074,-0.021038351580500603
1732621178777289500,10.88928955078125,-0.0037283156998455524,0.023568280041217804,-0.029560215771198273
1732621178787330000,10.899330078125,-0.00585878174751997,0.015046416781842709,-0.027429750189185143
1732621178797371000,10.909370849609376,-0.0079892473295331,0.005459319334477186,-0.017842652276158333
1732621178807411500,10.919411376953125,-0.0079892473295331,-0.0009320789249613881,-0.011451254598796368
1732621178817452300,10.929452392578124,-0.0047935484908521175,0.004394086077809334,-0.010386021807789803
1732621178827493400,10.939493408203125,-0.0005326165119186044,0.008655018173158169,-0.014646953903138638
1732621178837417500,10.94941748046875,0.0015978495357558131,0.010785484686493874,-0.014646953903138638
1732621178847351300,10.959351318359374,0.0015978495357558131,0.012915950268507004,-0.008255556225776672
1732621178857298400,10.96929833984375,0.0015978495357558131,0.015046416781842709,0.00452724052593112
1732621178867262200,10.97926220703125,0.0015978495357558131,0.008655018173158169,0.016244804486632347
1732621178877245000,10.989244873046875,0.006924014538526535,0.006524552125483751,0.023701434955000877
1732621178887243800,10.999243896484375,0.0079892473295331,0.0011983871227130294,0.022636201232671738
1732621178897264000,11.00926416015625,0.0079892473295331,0.0011983871227130294,0.018375270068645477
1732621178907306200,11.01930615234375,0.00905448105186224,0.0033288532868027687,0.011983871459960938
1732621178917369000,11.029369140625,0.0079892473295331,0.006524552125483751,0.00452724052593112
1732621178927451100,11.039451171875,0.012250179424881935,0.009720250964164734,-0.0018641578499227762
1732621178937549800,11.0495498046875,0.013315413147211075,0.010785484686493874,-0.0050598569214344025
1732621178947662300,11.059662353515625,0.01118494663387537,0.007589785382151604,-0.0050598569214344025
1732621178957785000,11.06978515625,0.01118494663387537,0.005459319334477186,-0.00399462366476655
1732621178967914800,11.079914794921875,0.012250179424881935,0.010785484686493874,-0.0018641578499227762
1732621178978047000,11.090046875,0.013315413147211075,0.011850717477500439,0.0023967742454260588
1732621178988158500,11.100158447265626,0.015445878729224205,-0.0030625448562204838,0.010918638668954372
1732621178998199800,11.11019970703125,0.015445878729224205,-0.008388710208237171,0.020505735650658607
1732621179008241200,11.1202412109375,0.016511112451553345,-0.0030625448562204838,0.03222329914569855
1732621179018282500,11.130282470703126,0.013315413147211075,-0.001997311832383275,0.024766668677330017
1732621179028323800,11.14032373046875,0.00585878174751997,-0.0030625448562204838,0.006657706573605537
1732621179038365200,11.150365234375,0.0026630824431777,0.0001331541279796511,-0.0018641578499227762
1732621179048406300,11.16040625,0.0005326165119186044,0.004394086077809334,0.005592473316937685
1732621179058447600,11.170447509765625,-0.0005326165119186044,0.010785484686493874,0.013049104250967503
1732621179068488700,11.18048876953125,-0.0037283156998455524,0.016111649572849274,0.006657706573605537
1732621179078530000,11.190530029296875,-0.0015978495357558131,0.012915950268507004,-0.002929390873759985
1732621179088537300,11.200537353515625,-0.0005326165119186044,0.012915950268507004,0.00133154122158885
1732621179098547200,11.210547119140625,0.0026630824431777,0.006524552125483751,0.018375270068645477
1732621179108561200,11.22056103515625,0.0037283156998455524,0.0033288532868027687,0.03328853100538254
1732621179118579700,11.230579833984375,-0.0015978495357558131,0.005459319334477186,0.03222329914569855
1732621179128604000,11.24060400390625,-0.0079892473295331,0.011850717477500439,0.029027599841356277
1732621179138634200,11.25063427734375,-0.01118494663387537,0.010785484686493874,0.03222329914569855
1732621179148670700,11.260670654296876,-0.0047935484908521175,0.009720250964164734,0.04074516147375107
1732621179158713000,11.270713134765625,-0.0005326165119186044,0.006524552125483751,0.05246272683143616
1732621179168761600,11.28076171875,-0.0005326165119186044,0.005459319334477186,0.05352795869112015
1732621179178815500,11.2908154296875,-0.0037283156998455524,0.0001331541279796511,0.05033225938677788
1732621179188873700,11.300873779296875,-0.0079892473295331,-0.0009320789249613881,0.04607132822275162
1732621179198936000,11.31093603515625,-0.01118494663387537,-0.0030625448562204838,0.04074516147375107
1732621179209001000,11.3210009765625,-0.013315413147211075,-0.006258244160562754,0.03328853100538254
1732621179219068000,11.33106787109375,-0.012250179424881935,-0.0030625448562204838,0.017310036346316338
1732621179229135400,11.34113525390625,-0.013315413147211075,0.0011983871227130294,0.0034620072692632675
1732621179239192800,11.35119287109375,-0.017576344311237335,0.00226362026296556,0.00133154122158885
1732621179249234200,11.361234130859375,-0.021837277337908745,0.004394086077809334,0.005592473316937685
1732621179259275500,11.371275634765626,-0.020772043615579605,0.004394086077809334,0.006657706573605537
1732621179269316900,11.38131689453125,-0.016511112451553345,0.007589785382151604,0.0002663082559593022
1732621179279358000,11.39135791015625,-0.012250179424881935,0.008655018173158169,-0.00399462366476655
1732621179289399000,11.40139892578125,-0.010119713842868805,0.004394086077809334,-0.0018641578499227762
1732621179299440000,11.411440185546875,-0.010119713842868805,-0.004127778112888336,0.005592473316937685
1732621179309481500,11.4214814453125,-0.01438064593821764,-0.011584409512579441,0.010918638668954372
1732621179319522600,11.4315224609375,-0.017576344311237335,-0.005193010903894901,0.011983871459960938
1732621179329445600,11.441445556640625,-0.016511112451553345,0.004394086077809334,0.006657706573605537
1732621179339378000,11.4513779296875,-0.018641578033566475,0.004394086077809334,0.006657706573605537
1732621179349323800,11.46132373046875,-0.015445878729224205,0.0001331541279796511,0.009853405877947807
1732621179359286500,11.47128662109375,-0.01438064593821764,-0.007323476951569319,0.015179570764303207
1732621179369268200,11.481268310546875,-0.01438064593821764,-0.007323476951569319,0.017310036346316338
1732621179379271000,11.49127099609375,-0.01438064593821764,0.008655018173158169,0.011983871459960938
1732621179389295400,11.50129541015625,-0.015445878729224205,0.022503048181533813,-0.0007989247678779066
1732621179399341000,11.511341064453125,-0.018641578033566475,0.028894444927573204,-0.0061250897124409676
1732621179409407000,11.521406982421874,-0.022902509197592735,0.03209014609456062,-0.00399462366476655
1732621179419491300,11.5314912109375,-0.020772043615579605,0.031024912372231483,0.00133154122158885
1732621179429592000,11.541592041015624,-0.017576344311237335,0.017176883295178413,0.006657706573605537
1732621179439705900,11.551705810546874,-0.013315413147211075,0.007589785382151604,0.010918638668954372
1732621179449829000,11.5618291015625,-0.01118494663387537,0.017176883295178413,0.018375270068645477
1732621179459958500,11.57195849609375,-0.013315413147211075,0.013981183059513569,0.017310036346316338
1732621179470090000,11.582090087890625,-0.020772043615579605,0.006524552125483751,0.005592473316937685
1732621179480185300,11.592185302734375,-0.023967742919921875,-0.001997311832383275,-0.0018641578499227762
1732621179490227000,11.60222705078125,-0.023967742919921875,-0.014780107885599136,0.0034620072692632675
1732621179500151300,11.6121513671875,-0.020772043615579605,-0.015845341607928276,0.020505735650658607
1732621179510084900,11.6220849609375,-0.015445878729224205,-0.009453942999243736,0.026897134259343147
1732621179520031500,11.632031494140625,-0.01118494663387537,-0.005193010903894901,0.019440501928329468
1732621179529994200,11.641994140625,-0.00585878174751997,0.005459319334477186,0.0077229393646121025
1732621179539976000,11.651975830078126,-0.0015978495357558131,0.017176883295178413,-0.002929390873759985
1732621179549974300,11.661974365234375,-0.0026630824431777,0.020372580736875534,-0.00399462366476655
1732621179559994400,11.671994384765625,-0.00585878174751997,0.008655018173158169,0.0034620072692632675
1732621179570031400,11.68203125,-0.00905448105186224,-0.012649642303586006,0.014114337973296642
1732621179580089600,11.692089599609375,-0.006924014538526535,-0.028628136962652206,0.025831900537014008
1732621179590162700,11.70216259765625,-0.0026630824431777,-0.03608476743102074,0.03222329914569855
1732621179600253400,11.71225341796875,-0.0026630824431777,-0.029693370684981346,0.03648423030972481
1732621179610354700,11.722354736328125,-0.0015978495357558131,-0.020106272771954536,0.03328853100538254
1732621179620468500,11.732468505859375,0.00905448105186224,-0.013714875094592571,0.025831900537014008
1732621179630586000,11.742586181640625,0.0005326165119186044,-0.019041040912270546,0.027962366119027138
1732621179640709600,11.752709716796875,-0.0026630824431777,-0.009453942999243736,0.03648423030972481
1732621179650768600,11.7627685546875,0.0005326165119186044,-0.010519175790250301,0.04074516147375107
1732621179660831700,11.772831787109375,0.0005326165119186044,-0.023301972076296806,0.03967992961406708
1732621179670851600,11.7828515625,-0.00585878174751997,-0.029693370684981346,0.0375494658946991
1732621179680876800,11.792876708984375,-0.01118494663387537,-0.03608476743102074,0.030092833563685417
1732621179690908200,11.802908203125,-0.01438064593821764,-0.023301972076296806,0.025831900537014008
1732621179700945700,11.812945556640624,-0.01118494663387537,-0.006258244160562754,0.015179570764303207
1732621179710989300,11.8229892578125,-0.012250179424881935,0.0001331541279796511,0.005592473316937685
1732621179721038800,11.833038818359375,-0.012250179424881935,0.0011983871227130294,0.00452724052593112
1732621179731093500,11.843093505859375,-0.017576344311237335,-0.005193010903894901,0.006657706573605537
1732621179741152500,11.853152587890625,-0.016511112451553345,-0.005193010903894901,0.009853405877947807
1732621179751215400,11.86321533203125,-0.016511112451553345,0.0011983871227130294,0.008788172155618668
1732621179761280500,11.873280517578126,-0.019706811755895615,-0.0009320789249613881,0.015179570764303207
1732621179771347500,11.883347412109375,-0.026098208501935005,-0.0009320789249613881,0.022636201232671738
1732621179781414700,11.89341455078125,-0.031424373388290405,-0.007323476951569319,0.026897134259343147
1732621179791468000,11.903468017578126,-0.027163442224264145,-0.011584409512579441,0.030092833563685417
1732621179801509400,11.91350927734375,-0.026098208501935005,-0.016910573467612267,0.029027599841356277
1732621179811550700,11.92355078125,-0.023967742919921875,-0.017975807189941406,0.025831900537014008
1732621179821591800,11.933591796875,-0.017576344311237335,-0.016910573467612267,0.030092833563685417
1732621179831633000,11.9436328125,-0.016511112451553345,-0.014780107885599136,0.03861469775438309
1732621179841674000,11.953674072265626,-0.019706811755895615,-0.007323476951569319,0.04181039705872536
1732621179851715000,11.963715087890625,-0.020772043615579605,-0.0009320789249613881,0.03435376659035683
1732621179861756400,11.97375634765625,-0.018641578033566475,0.00226362026296556,0.026897134259343147
1732621179871797500,11.983797607421875,-0.019706811755895615,0.006524552125483751,0.023701434955000877
1732621179881838600,11.993838623046875,-0.018641578033566475,0.0011983871227130294,0.020505735650658607
1732621179891880000,12.0038798828125,-0.013315413147211075,-0.005193010903894901,0.010918638668954372
1732621179901921300,12.01392138671875,-0.006924014538526535,0.005459319334477186,0.0023967742454260588
1732621179911943000,12.02394287109375,-0.0005326165119186044,0.012915950268507004,0.0002663082559593022
1732621179921942000,12.03394189453125,0.0026630824431777,0.011850717477500439,-0.010386021807789803
1732621179931926500,12.043926513671876,0.0015978495357558131,-0.0030625448562204838,-0.017842652276158333
1732621179941913300,12.053913330078124,0.0047935484908521175,-0.010519175790250301,-0.013581721112132072
1732621179951904500,12.063904541015624,-0.0005326165119186044,-0.015845341607928276,-0.00399462366476655
1732621179961902000,12.073902099609375,-0.0037283156998455524,-0.004127778112888336,0.0034620072692632675
1732621179971907300,12.0839072265625,-0.0047935484908521175,0.005459319334477186,-0.009320789016783237
1732621179981921300,12.09392138671875,-0.0015978495357558131,0.018242115154862404,-0.024234050884842873
1732621179991945000,12.103945068359375,-0.0015978495357558131,0.026763979345560074,-0.029560215771198273
1732621180001981700,12.113981689453125,-0.00585878174751997,0.023568280041217804,-0.019973119720816612
1732621180012029000,12.12402880859375,-0.00585878174751997,0.007589785382151604,-0.0061250897124409676
1732621180022085400,12.13408544921875,-0.00585878174751997,-0.004127778112888336,0.0077229393646121025
1732621180032149500,12.1441494140625,-0.0005326165119186044,-0.013714875094592571,0.015179570764303207
1732621180042220500,12.154220458984375,-0.0005326165119186044,-0.021171506494283676,0.017310036346316338
1732621180052296700,12.164296630859376,-0.0026630824431777,-0.014780107885599136,0.017310036346316338
1732621180062376400,12.17437646484375,-0.0015978495357558131,-0.004127778112888336,0.009853405877947807
1732621180072462600,12.184462646484375,-0.0005326165119186044,0.0001331541279796511,0.005592473316937685
1732621180082551600,12.194551513671875,-0.0005326165119186044,-0.001997311832383275,0.006657706573605537
1732621180092615400,12.204615478515626,-0.0005326165119186044,0.0001331541279796511,0.00452724052593112
1732621180102630000,12.2146298828125,0.0037283156998455524,-0.0009320789249613881,0.0023967742454260588
1732621180112649700,12.224649658203125,0.0079892473295331,-0.005193010903894901,0.00133154122158885
