time,seconds_elapsed,z,y,x
1732621167992665600,0.10466552734375,8.578424453735352,4.419097900390625,1.3820528984069824
1732621168002656300,0.11465625,8.261791229248047,4.490923881530762,1.224035620689392
1732621168012657700,0.12465771484375,7.395090579986572,4.586691856384277,1.2288240194320679
1732621168022668800,0.134668701171875,6.613982200622559,4.6489410400390625,0.884058952331543
1732621168032689400,0.144689453125,6.053140640258789,4.715978622436523,0.3908534348011017
1732621168042718700,0.15471875,6.403292655944824,4.845265865325928,0.09816227108240128
1732621168052757000,0.164757080078125,7.634510517120361,4.8500542640686035,0.10295066982507706
1732621168062804200,0.17480419921875,9.263166427612305,4.69682502746582,0.26096799969673157
1732621168072859600,0.184859619140625,10.456077575683594,4.6489410400390625,0.4291606545448303
1732621168082922200,0.194922119140625,11.050437927246094,4.6489410400390625,0.4866214990615845
1732621168092991000,0.204990966796875,10.916362762451172,4.720767021179199,0.7116764783859253
1732621168103064600,0.215064697265625,10.307637214660645,4.75428581237793,1.0085574388504028
1732621168113141500,0.2251416015625,9.967659950256348,4.629787445068359,1.247977614402771
1732621168123220200,0.23522021484375,9.86231517791748,4.48134708404541,1.7322049140930176
1732621168133304000,0.245303955078125,9.665990829467773,4.414309501647949,2.2589292526245117
1732621168143346000,0.255345947265625,9.484031677246094,4.352060317993164,2.5127146244049072
1732621168153392600,0.265392578125,9.315838813781738,4.241328239440918,2.167949676513672
1732621168163430000,0.275429931640625,8.923190116882324,4.045003890991211,1.4826093912124634
1732621168173472000,0.285471923828125,8.300098419189453,3.7912182807922363,0.9989806413650513
1732621168183513300,0.295513427734375,8.218695640563965,3.7241806983947754,0.7882909178733826
1732621168193559300,0.305559326171875,8.458714485168457,3.776853084564209,0.46746787428855896
1732621168203594500,0.315594482421875,8.779537200927734,3.848679304122925,-0.09816227108240128
1732621168213629700,0.325629638671875,8.765172004699707,3.9636008739471436,-0.5099649429321289
1732621168223665700,0.335665771484375,8.69334602355957,4.217386245727539,-0.5051765441894531
1732621168233707000,0.34570703125,8.358158111572266,4.217386245727539,0.12689268589019775
1732621168243753500,0.35575341796875,7.763797760009766,4.073734283447266,0.5297171473503113
1732621168253804800,0.3658046875,6.503849029541016,3.7385458946228027,-0.4429273009300232
1732621168263843300,0.37584326171875,6.460753440856934,4.261080265045166,-1.6741455793380737
1732621168273881600,0.385881591796875,14.90211009979248,4.332906723022461,4.228160381317139
1732621168283925000,0.395925048828125,11.150994300842285,5.861005783081055,0.3758896589279175
1732621168293973200,0.40597314453125,11.265915870666504,5.127781391143799,3.778050184249878
1732621168304025600,0.416025634765625,8.698134422302246,5.252279758453369,2.963423252105713
1732621168314081800,0.426081787109375,7.572261333465576,5.175665378570557,2.2876596450805664
1732621168324140500,0.436140625,7.092822551727295,5.39174222946167,1.4395138025283813
1732621168334199800,0.44619970703125,7.385513782501221,5.453991413116455,1.0947487354278564
1732621168344260600,0.456260498046875,8.027159690856934,5.631162166595459,0.702099621295929
1732621168354321700,0.46632177734375,8.347982406616211,6.296750545501709,-0.304063618183136
1732621168364377000,0.476377197265625,8.343194007873535,6.052541732788086,-0.011971008032560349
1732621168374418000,0.48641796875,8.406042098999023,5.784391403198242,2.7048494815826416
1732621168384459000,0.496458984375,8.304886817932129,5.7987565994262695,3.797203779220581
1732621168394499800,0.506499755859375,8.501810073852539,5.889736175537109,2.810194253921509
1732621168404540700,0.516540771484375,9.642048835754395,5.5976433753967285,1.0564415454864502
1732621168414581800,0.526581787109375,15.558719635009766,4.783016681671143,0.10773907601833344
1732621168424622800,0.536622802734375,6.824671745300293,4.739920616149902,-0.035913024097681046
1732621168434546700,0.546546630859375,9.651625633239746,6.493673324584961,-2.565387010574341
1732621168444480000,0.55647998046875,7.902661323547363,6.570288181304932,-1.923741102218628
1732621168454426600,0.566426513671875,5.698798656463623,5.108627796173096,-0.395043283700943
1732621168464385300,0.57638525390625,6.666654586791992,5.669469833374023,0.1412578970193863
1732621168474363400,0.58636328125,7.428609371185303,6.689998149871826,1.6603789329528809
1732621168484362800,0.59636279296875,10.69130802154541,5.497087001800537,1.1091139316558838
1732621168494384000,0.606384033203125,11.323376655578613,2.741959571838379,1.8519150018692017
1732621168504427500,0.616427490234375,10.140042304992676,4.0976762771606445,2.3977930545806885
1732621168514492200,0.6264921875,8.22348403930664,4.083311080932617,2.3116016387939453
1732621168524575700,0.63657568359375,8.932766914367676,4.644152641296387,1.3198037147521973
1732621168534676200,0.64667626953125,8.951920509338379,5.568912982940674,-0.8553285598754883
1732621168544790500,0.65679052734375,8.683769226074219,5.621585369110107,-2.3355438709259033
1732621168554915000,0.6669150390625,9.397241592407227,7.159261703491211,-2.076969861984253
1732621168565046300,0.67704638671875,9.852738380432129,8.131906509399414,-1.492186188697815
1732621168575180300,0.68718017578125,7.984064102172852,7.830236434936523,1.679532527923584
1732621168585167000,0.6971669921875,6.2404866218566895,6.52719259262085,4.271255970001221
1732621168595161000,0.7071611328125,5.397129058837891,5.57370138168335,3.135805606842041
1732621168605163800,0.717163818359375,5.962160587310791,5.304952621459961,1.4634557962417603
1732621168615171000,0.727171142578125,7.682394504547119,5.22833776473999,0.6159083843231201
1732621168625189600,0.737189697265625,9.17697525024414,4.859631061553955,0.3232172429561615
1732621168635219500,0.747219482421875,10.264541625976562,4.126406669616699,0.639850378036499
1732621168645260800,0.7572607421875,10.417770385742188,3.3698389530181885,0.40521863102912903
1732621168655313200,0.767313232421875,9.565434455871582,2.895188331604004,1.2958617210388184
1732621168665371000,0.777370849609375,9.44991397857666,3.0627825260162354,1.4730325937271118
1732621168675437800,0.787437744140625,9.982025146484375,3.5948939323425293,1.602918028831482
1732621168685507800,0.7975078125,9.88625717163086,2.646191358566284,1.703474521636963
1732621168695584300,0.807584228515625,7.75900936126709,2.8185739517211914,2.3499090671539307
1732621168705665800,0.817665771484375,7.419032573699951,3.5853171348571777,1.3437457084655762
1732621168715750400,0.82775048828125,8.779537200927734,3.618835926055908,1.3150153160095215
1732621168725836300,0.837836181640625,9.26795482635498,3.5661635398864746,2.0865468978881836
1732621168735788000,0.8477880859375,6.570886611938477,4.030638694763184,2.2828712463378906
1732621168745748000,0.857748046875,4.558559894561768,3.7481226921081543,1.0372878313064575
1732621168755719400,0.867719482421875,3.8061821460723877,4.414309501647949,0.9941922426223755
1732621168765699300,0.87769921875,4.271255970001221,5.6455278396606445,1.8327614068984985
1732621168775693300,0.887693359375,4.5825018882751465,6.253654956817627,0.9415197968482971
1732621168785704200,0.8977041015625,4.529829502105713,6.809708118438721,-0.3423708379268646
1732621168795732700,0.907732666015625,3.576338768005371,8.045714378356934,-1.611896276473999
1732621168805778400,0.9177783203125,2.230198860168457,13.282432556152344,-8.975862503051758
1732621168815836200,0.927836181640625,8.108562469482422,11.9213285446167,-7.869142532348633
1732621168825909200,0.9379091796875,5.296572685241699,8.558073997497559,-4.836287498474121
1732621168835991000,0.947990966796875,4.146757125854492,6.65169095993042,-5.971737384796143
1732621168846084400,0.95808447265625,9.133879661560059,7.672219276428223,-3.5907039642333984
1732621168856187000,0.968186767578125,6.704961776733398,6.962936878204346,0.7739257216453552
1732621168866290700,0.978290771484375,10.106523513793945,5.2666449546813965,-0.730231523513794
1732621168876398300,0.9883984375,9.665990829467773,5.036801815032959,-2.8383262157440186
1732621168886506800,0.9985068359375,7.596203327178955,5.578489780426025,-2.0482394695281982
1732621168896569600,1.008569580078125,4.73573112487793,6.785766124725342,-1.6262614727020264
1732621168906611000,1.01861083984375,2.474407434463501,7.393893241882324,-1.755548357963562
1732621168916533800,1.02853369140625,2.3499090671539307,7.667430877685547,-1.7172411680221558
1732621168926465800,1.0384658203125,3.6337995529174805,7.997830867767334,-2.632424831390381
1732621168936411400,1.048411376953125,5.6461262702941895,7.648277282714844,-3.863642930984497
1732621168946374000,1.058373779296875,6.384139060974121,6.656479358673096,-3.418321371078491
1732621168956355300,1.068355224609375,5.387552261352539,6.876745700836182,-3.1693243980407715
1732621168966357800,1.078357666015625,6.455965042114258,8.908226013183594,-1.2431892156600952
1732621168976382000,1.0883818359375,5.085883140563965,7.629123687744141,3.557185173034668
1732621168986427400,1.098427490234375,4.477157115936279,5.975927352905273,4.108449935913086
1732621168996493300,1.108493408203125,5.119401931762695,4.687248229980469,0.40521863102912903
1732621169006577700,1.11857763671875,7.414244174957275,4.5388078689575195,-3.470993995666504
1732621169016678400,1.128678466796875,12.13321590423584,10.010157585144043,-8.592191696166992
1732621169026792000,1.1387919921875,13.934253692626953,10.987589836120605,-4.841075897216797
1732621169036915500,1.14891552734375,10.887632369995117,6.138733386993408,-2.9436709880828857
1732621169047044900,1.159044921875,10.959458351135254,5.333683013916016,-1.449090600013733
1732621169057176600,1.169176513671875,11.927314758300781,6.411672115325928,-0.8026561141014099
1732621169067153200,1.179153076171875,10.480019569396973,4.457405090332031,-1.2288240194320679
1732621169077137000,1.189136962890625,8.290521621704102,5.57370138168335,-0.524330198764801
1732621169087125200,1.199125244140625,7.529165744781494,7.739256858825684,-1.367687702178955
1732621169097125000,1.209125,6.570886611938477,8.960898399353027,-4.481945514678955
1732621169107137300,1.21913720703125,6.30752420425415,7.599794864654541,-3.289034605026245
1732621169117163000,1.2291630859375,7.988852500915527,7.772775650024414,1.746570110321045
1732621169127201800,1.239201904296875,-2.0913352966308594,8.610746383666992,1.2384008169174194
1732621169137253600,1.249253662109375,-0.1412578970193863,6.977302074432373,8.860940933227539
1732621169147317200,1.259317138671875,9.181763648986816,9.367912292480469,3.691260576248169
1732621169157391400,1.269391357421875,9.948506355285645,10.287884712219238,-0.5291185975074768
1732621169167469800,1.2794697265625,9.119514465332031,9.185953140258789,1.8279730081558228
1732621169177555500,1.289555419921875,9.728240013122559,10.316615104675293,2.958634853363037
1732621169187646200,1.299646240234375,12.09969711303711,10.910377502441406,1.4107834100723267
1732621169197739800,1.30973974609375,15.185224533081055,10.47942066192627,-0.5195417404174805
1732621169207834000,1.319834228515625,17.68596839904785,10.010157585144043,-1.1186907291412354
1732621169217775900,1.32977587890625,20.225019454956055,8.879495620727539,-2.100912094116211
1732621169227726000,1.33972607421875,21.796213150024414,7.638700485229492,-3.0974984169006348
1732621169237688600,1.3496884765625,21.39877700805664,6.14831018447876,-3.6146459579467773
1732621169247665400,1.35966552734375,18.605939865112305,4.720767021179199,-3.973776340484619
1732621169257659100,1.3696591796875,14.193426132202148,3.757699489593506,-3.959411144256592
1732621169267670500,1.37967041015625,9.100360870361328,4.040215492248535,-2.6898856163024902
1732621169277700600,1.38970068359375,3.883395195007324,5.075109004974365,-1.3102269172668457
1732621169287748600,1.39974853515625,-0.3232172429561615,6.277596950531006,-0.7643488645553589
1732621169297813800,1.409813720703125,-2.8095955848693848,7.27418327331543,-0.12210428714752197
1732621169307894500,1.41989453125,-3.4135329723358154,8.672995567321777,0.1604115068912506
1732621169317988400,1.42998828125,-3.073556423187256,9.138069152832031,0.7499836683273315
1732621169328093000,1.440093017578125,-2.24935245513916,8.131906509399414,0.7978677153587341
1732621169338205200,1.450205078125,-1.0324994325637817,7.547122478485107,-0.3423708379268646
1732621169348321800,1.46032177734375,-0.6973112225532532,8.951321601867676,-3.0160956382751465
1732621169358440000,1.47043994140625,-0.821809709072113,8.265981674194336,-4.036025524139404
1732621169368514600,1.4805146484375,-1.0372878313064575,6.666056156158447,-1.6071078777313232
1732621169378555600,1.4905556640625,-0.9894038438796997,5.616796970367432,1.4107834100723267
1732621169388477000,1.500476806640625,-1.4203602075576782,5.506663799285889,3.4757823944091797
1732621169398407700,1.51040771484375,-2.1727380752563477,5.60722017288208,3.0544028282165527
1732621169408352300,1.520352294921875,-3.1932666301727295,5.295375823974609,1.4443022012710571
1732621169418313700,1.530313720703125,-4.922478675842285,5.1565117835998535,-0.3663128614425659
1732621169428294700,1.540294677734375,-6.451176643371582,5.2666449546813965,-2.1727380752563477
1732621169438296800,1.550296875,-7.438186168670654,4.931457042694092,-2.7760767936706543
1732621169448320800,1.56032080078125,-7.840412139892578,4.744709014892578,-2.321178436279297
1732621169458366200,1.5703662109375,-6.819883346557617,4.821323871612549,-4.180276393890381
1732621169468432600,1.5804326171875,-5.3779754638671875,4.840477466583252,-5.27263069152832
1732621169478517500,1.590517578125,-4.07014274597168,4.706401824951172,-5.617395877838135
1732621169488619000,1.600618896484375,-3.4757823944091797,5.027225017547607,-5.27263069152832
1732621169498733600,1.610733642578125,-3.662529945373535,5.5545477867126465,-4.644751071929932
1732621169508858000,1.620858154296875,-4.027047157287598,5.7987565994262695,-4.41969633102417
1732621169518988500,1.630988525390625,-4.491522312164307,6.114790916442871,-3.576338768005371
1732621169529121300,1.641121337890625,-4.596867084503174,6.613383769989014,-2.517503023147583
1732621169539218000,1.651218017578125,-4.654327869415283,7.264606475830078,-2.6180596351623535
1732621169549259300,1.66125927734375,-4.314351558685303,7.926004886627197,-3.643376350402832
1732621169559300900,1.67130078125,-3.6385879516601562,8.577227592468262,-3.3895909786224365
1732621169569342200,1.68134228515625,-2.713827610015869,9.34397029876709,-2.5797524452209473
1732621169579383600,1.691383544921875,-1.425148606300354,10.24000072479248,-1.985990285873413
1732621169589424600,1.701424560546875,-0.08379705995321274,11.303625106811523,-0.15083470940589905
1732621169599465700,1.7114658203125,0.821809709072113,12.026673316955566,2.2254104614257812
1732621169609507000,1.721507080078125,1.8806453943252563,12.252326965332031,3.4853591918945312
1732621169619548200,1.731548095703125,3.3417069911956787,12.060192108154297,4.309563159942627
1732621169629589500,1.741589599609375,4.108449935913086,11.600505828857422,5.152920722961426
1732621169639630600,1.751630615234375,4.558559894561768,11.14081859588623,5.085883140563965
1732621169649672000,1.761671875,4.280832767486572,10.781089782714844,4.7836151123046875
1732621169659713300,1.77171337890625,3.3848025798797607,10.407594680786133,3.9025487899780273
1732621169669754600,1.781754638671875,2.0147206783294678,10.36449909210205,1.8327614068984985
1732621169679796000,1.7917958984375,0.5488707423210144,10.809821128845215,-0.7110779285430908
1732621169689837300,1.80183740234375,-0.8170213103294373,11.337143898010254,-2.6228480339050293
1732621169699879000,1.81187890625,-1.7896658182144165,12.055403709411621,-4.021660327911377
1732621169709920500,1.82192041015625,-1.9572598934173584,12.42470932006836,-3.6816837787628174
1732621169719961900,1.8319619140625,-1.3533225059509277,12.395978927612305,-2.0482394695281982
1732621169730003500,1.84200341796875,-1.0708067417144775,12.415132522583008,-0.40462008118629456
1732621169740045000,1.852045166015625,-1.425148606300354,12.405555725097656,1.2814964056015015
1732621169750086700,1.862086669921875,-1.6310498714447021,12.146982192993164,3.0160956382751465
1732621169760128000,1.8721279296875,-1.2862848043441772,11.80640697479248,5.14813232421875
1732621169770050600,1.882050537109375,-0.6009446382522583,11.183915138244629,6.235698223114014
1732621169779982800,1.89198291015625,-0.08858546614646912,10.359710693359375,5.875969409942627
1732621169789928400,1.901928466796875,-0.10773907601833344,9.664793968200684,4.113238334655762
1732621169799890700,1.911890625,-1.1713632345199585,9.233837127685547,1.890222191810608
1732621169809872400,1.921872314453125,-2.7760767936706543,8.999205589294434,-0.031124621629714966
1732621169819875000,1.931875,-4.079719543457031,8.76457405090332,-1.348534107208252
1732621169829894400,1.941894287109375,-5.162497520446777,8.471882820129395,-1.6789339780807495
1732621169839935500,1.951935546875,-5.698798656463623,7.935581684112549,-0.9941922426223755
1732621169849993000,1.961992919921875,-5.641337871551514,7.729680061340332,1.492186188697815
1732621169860070000,1.97206982421875,-6.134543418884277,8.088809967041016,5.119401931762695
1732621169870159400,1.982159423828125,-7.414244174957275,8.232462882995605,7.213130950927734
1732621169880264000,1.992263916015625,-8.808267593383789,8.71609115600586,7.092822551727295
1732621169890375700,2.002375732421875,-9.82879638671875,7.547122478485107,4.084507942199707
1732621169900496400,2.012496337890625,-10.811017990112305,5.568912982940674,0.7930793166160583
1732621169910617300,2.022617431640625,-9.603142738342285,6.1530985832214355,-3.049614429473877
1732621169920671500,2.03267138671875,-4.663905143737793,8.999205589294434,-11.251550674438477
1732621169930712300,2.04271240234375,-5.401917457580566,16.842012405395508,-7.293935298919678
1732621169940758000,2.052758056640625,-13.283031463623047,14.20180606842041,14.504672050476074
1732621169950794200,2.062794189453125,-14.849437713623047,5.324106216430664,28.59035873413086
1732621169960835600,2.072835693359375,-12.592902183532715,-3.576937437057495,28.441320419311523
1732621169970881800,2.0828818359375,-6.613982200622559,-0.2041056901216507,10.322002410888672
1732621169980932000,2.09293212890625,-4.548983097076416,4.792593479156494,-5.17626428604126
1732621169990960400,2.10296044921875,-5.070919036865234,6.057330131530762,-16.114173889160156
1732621170000989000,2.112989013671875,-7.907449722290039,5.420472621917725,-18.519149780273438
1732621170011023400,2.1230234375,-10.858901977539062,5.3145294189453125,-16.1285400390625
1732621170021063400,2.1330634765625,-9.685144424438477,6.287173748016357,-11.711237907409668
1732621170031109400,2.143109375,-5.9525837898254395,7.288548469543457,-5.085284233093262
1732621170041160700,2.15316064453125,-3.135805606842041,8.313865661621094,1.6699557304382324
1732621170051207400,2.16320751953125,-0.40940847992897034,9.430161476135254,7.011419773101807
1732621170061259000,2.173259033203125,1.9333178997039795,9.808445930480957,10.120888710021973
1732621170071314700,2.183314697265625,3.265092611312866,9.64564037322998,9.407417297363281
1732621170081373400,2.19337353515625,3.375225782394409,9.86650562286377,4.73573112487793
1732621170091375000,2.203375,2.3068132400512695,10.02452278137207,0.0933738648891449
1732621170101383000,2.2133828125,0.7835025191307068,10.005369186401367,-2.2158336639404297
1732621170111398400,2.2233984375,-1.0755951404571533,10.02452278137207,-2.517503023147583
1732621170121421800,2.233421875,-2.5127146244049072,9.976638793945312,-0.9750386476516724
1732621170131453700,2.24345361328125,-3.1262288093566895,9.731831550598145,1.7561469078063965
1732621170141494500,2.25349462890625,-3.1932666301727295,9.233837127685547,3.9217023849487305
1732621170151538400,2.263538330078125,-2.7042508125305176,8.936956405639648,5.392340660095215
1732621170161590800,2.2735908203125,-1.7896658182144165,8.730456352233887,5.813720226287842
1732621170171650300,2.283650390625,-0.7691373229026794,8.323442459106445,4.6255974769592285
1732621170181716200,2.29371630859375,0.4381389021873474,8.112752914428711,2.7240030765533447
1732621170191787000,2.303787109375,2.670732021331787,7.513603687286377,1.4347254037857056
1732621170201828900,2.313828857421875,6.27400541305542,6.948571681976318,0.06464344263076782
1732621170211873800,2.323873779296875,10.01075553894043,6.277596950531006,-1.0085574388504028
1732621170221919500,2.33391943359375,12.645574569702148,5.166088581085205,-1.7603367567062378
1732621170231953200,2.343953125,14.05456256866455,4.294599533081055,-1.391629695892334
1732621170241987000,2.353987060546875,15.400702476501465,4.140771865844727,-1.061229944229126
1732621170252021500,2.364021484375,16.943166732788086,3.360262155532837,1.6364368200302124
1732621170262057000,2.374056884765625,17.456125259399414,1.9033904075622559,5.80414342880249
1732621170272093200,2.38409326171875,16.244060516357422,0.3034650683403015,10.039485931396484
1732621170282130700,2.394130615234375,13.752294540405273,-1.3539210557937622,12.171523094177246
1732621170292174000,2.404174072265625,8.300098419189453,-3.112462282180786,10.65778923034668
1732621170302221000,2.414220947265625,-2.2206220626831055,-5.704185485839844,6.671442985534668
1732621170312269300,2.424269287109375,-78.56932067871094,-4.928464412689209,2.589329242706299
1732621170322318000,2.434318115234375,-139.61068725585938,10.541669845581055,-6.192004203796387
1732621170332366600,2.44436669921875,-30.678701400756836,4.280233860015869,-10.029909133911133
1732621170342408000,2.454407958984375,-4.467580318450928,-8.58381175994873,4.41969633102417
1732621170352449300,2.46444921875,1.698686122894287,2.2200236320495605,-2.182314872741699
1732621170362490600,2.47449072265625,0.11252748221158981,3.556586742401123,-3.820547342300415
1732621170372535600,2.48453564453125,-4.563348293304443,4.557961463928223,-1.6837223768234253
1732621170382581800,2.494581787109375,-5.339668273925781,6.728305339813232,1.3581109046936035
1732621170392628200,2.504628173828125,-7.5674729347229,6.9246296882629395,4.505887508392334
1732621170402656300,2.51465625,-11.462240219116211,7.916428089141846,7.1221513748168945
1732621170412689700,2.524689697265625,-14.954782485961914,8.505401611328125,7.672817707061768
1732621170422728400,2.534728515625,-17.14427947998047,8.65863037109375,6.384139060974121
1732621170432772600,2.544772705078125,-17.02935791015625,8.5101900100708,4.616020679473877
1732621170442821000,2.554821044921875,-15.160683631896973,7.844601631164551,3.667318344116211
1732621170452871700,2.56487158203125,-12.741342544555664,7.269394874572754,2.6426000595092773
1732621170462913800,2.574913818359375,-10.566210746765137,6.536769390106201,1.8950105905532837
1732621170472946200,2.5849462890625,-8.645462036132812,6.196194171905518,1.5310919284820557
1732621170482978800,2.594978759765625,-7.782951354980469,6.052541732788086,2.0434510707855225
1732621170493012000,2.605011962890625,-7.4764933586120605,5.861005783081055,2.8437130451202393
1732621170503046400,2.61504638671875,-7.419032573699951,5.975927352905273,3.3033998012542725
1732621170513086700,2.625086669921875,-7.869142532348633,6.473921298980713,2.7766754627227783
1732621170523128000,2.635128173828125,-8.295310020446777,6.828861713409424,2.100912094116211
1732621170533175300,2.64517529296875,-8.51138687133789,7.0156097412109375,1.5981296300888062
1732621170543223000,2.65522314453125,-8.18996524810791,7.346009254455566,0.7882909178733826
1732621170553275600,2.665275634765625,-7.198167324066162,7.729680061340332,0.09816227108240128
1732621170563318500,2.675318603515625,-5.655703067779541,7.767987251281738,-0.07422025501728058
1732621170573366000,2.685365966796875,-2.493561029434204,7.629123687744141,0.4770447015762329
1732621170583402200,2.69540234375,1.9381062984466553,7.369951248168945,1.0420763492584229
1732621170593443300,2.705443359375,8.463502883911133,6.752247333526611,1.3006501197814941
1732621170603484400,2.715484375,17.105972290039062,6.205770969390869,2.163161277770996
1732621170613525500,2.725525390625,23.00408935546875,5.659893035888672,3.514089584350586
1732621170623566600,2.735566650390625,25.672426223754883,5.10383939743042,4.127603530883789
1732621170633612500,2.745612548828125,28.75316619873047,4.280233860015869,3.1932666301727295
1732621170643649500,2.7556494140625,29.294254302978516,3.0579941272735596,0.596754789352417
1732621170653691600,2.765691650390625,27.234045028686523,1.314416766166687,-2.431311845779419
1732621170663732500,2.775732421875,25.46173667907715,-0.34835633635520935,-3.1884782314300537
1732621170673778200,2.785778076171875,21.15935516357422,-2.6144683361053467,-1.1330559253692627
1732621170683828500,2.795828369140625,13.594277381896973,-4.9619832038879395,3.883395195007324
1732621170693882400,2.80588232421875,6.1734490394592285,-6.6145806312561035,10.585963249206543
1732621170703939600,2.815939697265625,-7.955333709716797,-9.657012939453125,15.415067672729492
1732621170713999400,2.825999267578125,-138.60452270507812,-3.045424461364746,3.1501708030700684
1732621170724061000,2.83606103515625,-15.783774375915527,6.56071138381958,-17.45552635192871
1732621170734123000,2.846123046875,16.947956085205078,-10.452486038208008,-1.755548357963562
1732621170744183800,2.856183837890625,8.789113998413086,-6.839635848999023,0.17956513166427612
1732621170754225200,2.86622509765625,1.6508020162582397,4.179079055786133,-11.05522632598877
1732621170764266500,2.8762666015625,-4.869806289672852,3.772064685821533,-10.542268753051758
1732621170774307800,2.886307861328125,-12.430096626281738,5.616796970367432,-4.20421838760376
1732621170784230000,2.89622998046875,-20.105308532714844,7.8781208992004395,-0.21308395266532898
1732621170794161400,2.906161376953125,-24.57049560546875,8.1941556930542,4.620809078216553
1732621170804106500,2.9161064453125,-26.25182342529297,9.64564037322998,7.873930931091309
1732621170814068500,2.926068359375,-25.84002113342285,9.248202323913574,8.324639320373535
1732621170824045000,2.936045166015625,-23.827693939208984,8.313865661621094,7.174823760986328
1732621170834043100,2.946043212890625,-19.496583938598633,7.231087684631348,5.583877086639404
1732621170844063200,2.956063232421875,-15.203779220581055,5.588066577911377,3.801992416381836
1732621170854105600,2.966105712890625,-12.003929138183594,4.591480255126953,1.5502456426620483
1732621170864169200,2.976169189453125,-9.73781681060791,4.581903457641602,-0.3471592366695404
1732621170874252500,2.98625244140625,-8.544905662536621,4.79738187789917,-1.14742112159729
1732621170884348000,2.996347900390625,-8.443750381469727,4.9170918464660645,-0.9558850526809692
1732621170894457900,3.006457763671875,-8.83699893951416,5.132569789886475,-0.7835025191307068
1732621170904578800,3.016578857421875,-9.014169692993164,5.396530628204346,0.07422025501728058
1732621170914707200,3.026707275390625,-8.607154846191406,5.564124584197998,0.47225627303123474
1732621170924839400,3.03683935546875,-7.27957010269165,5.688623428344727,0.5057750940322876
1732621170934969900,3.046969970703125,-5.248688697814941,5.621585369110107,0.6733692288398743
1732621170945012700,3.0570126953125,-2.292448043823242,5.290587425231934,0.15562310814857483
1732621170955052500,3.067052490234375,1.3293805122375488,4.950610637664795,-0.22744916379451752
1732621170965092600,3.077092529296875,7.006631374359131,4.337695121765137,-0.3998316824436188
1732621170975016200,3.08701611328125,15.9705228805542,3.1974563598632812,-1.4443022012710571
1732621170984949200,3.09694921875,25.88790512084961,2.138620615005493,-3.312976598739624
1732621170994896000,3.106895751953125,34.425628662109375,1.601720929145813,-5.507262229919434
1732621171004859100,3.116859130859375,39.93049621582031,0.7248445749282837,-6.422446250915527
1732621171014841600,3.126841552734375,41.635765075683594,-0.6835445761680603,-5.032611846923828
1732621171024844500,3.136844482421875,39.88261032104492,-2.6671407222747803,-3.1645359992980957
1732621171034869200,3.146869140625,35.54192352294922,-4.990713596343994,-0.2513911724090576
1732621171044915000,3.1569150390625,29.73059844970703,-7.122750282287598,5.210381507873535
1732621171054980900,3.16698095703125,23.291393280029297,-7.85537576675415,12.583325386047363
1732621171065065200,3.177065185546875,17.283143997192383,-8.497620582580566,17.283742904663086
1732621171075165700,3.187165771484375,13.06755256652832,-13.350666999816895,22.816741943359375
1732621171085274400,3.1972744140625,-93.24877166748047,-4.089895248413086,31.64655876159668
1732621171095392800,3.207392822265625,-91.60575103759766,23.266254425048828,-8.448538780212402
1732621171105517800,3.217517822265625,7.107187747955322,-7.970297336578369,-8.400654792785645
1732621171115645700,3.227645751953125,9.512762069702148,0.8062474131584167,-2.0865468978881836
1732621171125635800,3.2376357421875,6.910863399505615,10.891223907470703,-4.568136692047119
1732621171135633200,3.247633056640625,-2.388216257095337,7.255029678344727,1.204882025718689
1732621171145638400,3.257638427734375,-13.072340965270996,10.924742698669434,5.306149482727051
1732621171155653400,3.2676533203125,-18.370710372924805,10.987589836120605,4.975749492645264
1732621171165678300,3.27767822265625,-11.558009147644043,8.845976829528809,1.8854337930679321
1732621171175713500,3.287713623046875,-6.810306549072266,5.036801815032959,-0.5339069962501526
1732621171185759200,3.29775927734375,-4.869806289672852,3.3458969593048096,-3.9929299354553223
1732621171195814400,3.307814453125,-5.191227912902832,3.446453332901001,-3.8157589435577393
1732621171205878300,3.317878173828125,-8.233060836791992,5.4252610206604,-0.28969839215278625
1732621171215949800,3.32794970703125,-9.579200744628906,6.848015308380127,1.449090600013733
1732621171226026800,3.33802685546875,-8.865729331970215,7.456142425537109,1.698686122894287
1732621171236108000,3.34810791015625,-8.424596786499023,7.470507621765137,1.27191960811615
1732621171246191900,3.35819189453125,-8.453327178955078,6.953360080718994,0.6542156338691711
1732621171256276500,3.3682763671875,-8.467693328857422,6.45476770401001,0.7835025191307068
1732621171266336000,3.3783359375,-8.343194007873535,6.0190229415893555,1.0085574388504028
1732621171276377000,3.388377197265625,-7.88350772857666,5.770026206970215,0.7308300733566284
1732621171286418200,3.398418212890625,-7.03057336807251,5.928043365478516,0.44831427931785583
1732621171296459300,3.408459228515625,-6.288370609283447,6.133944988250732,0.6877344250679016
1732621171306500600,3.41850048828125,-5.598242282867432,6.4834980964660645,0.8505401611328125
1732621171316541700,3.428541748046875,-5.191227912902832,6.752247333526611,0.9080010056495667
1732621171326582800,3.438582763671875,-5.118803024291992,6.723516941070557,1.104325532913208
1732621171336505300,3.44850537109375,-5.401917457580566,6.938994884490967,0.7643488645553589
1732621171346437400,3.458437255859375,-5.430647850036621,7.465719223022461,0.414795458316803
1732621171356383000,3.468383056640625,-5.943006992340088,7.187992095947266,1.204882025718689
1732621171366345500,3.478345458984375,-6.465541839599609,7.197568893432617,1.367687702178955
1732621171376327400,3.488327392578125,-6.652289390563965,7.298125267028809,1.247977614402771
1732621171386330000,3.498330078125,-6.254851818084717,7.30770206451416,1.1905168294906616
1732621171396354300,3.508354248046875,-5.545569896697998,7.360374450683594,1.6364368200302124
1732621171406400000,3.51839990234375,-5.23911190032959,7.441777229309082,2.24935245513916
1732621171416466400,3.528466552734375,-5.574300289154053,7.360374450683594,2.4600422382354736
1732621171426551000,3.538551025390625,-6.685808181762695,7.355586051940918,2.1152772903442383
1732621171436652000,3.548652099609375,-8.261791229248047,7.350797653198242,1.4155718088150024
1732621171446766000,3.55876611328125,-9.41639518737793,7.312490463256836,1.027711033821106
1732621171456889600,3.5688896484375,-9.780912399291992,7.202357292175293,1.14742112159729
1732621171467019300,3.579019287109375,-8.746018409729004,7.09222412109375,1.2000936269760132
1732621171477151200,3.589151123046875,-7.1454949378967285,6.886322498321533,1.2623428106307983
1732621171487246300,3.599246337890625,-6.033987045288086,6.656479358673096,0.9654618501663208
1732621171497287700,3.60928759765625,-5.191227912902832,6.632537364959717,0.44352585077285767
1732621171507329000,3.6193291015625,-4.970362663269043,6.5080389976501465,0.6733692288398743
1732621171517370400,3.629370361328125,-5.550358295440674,6.354211330413818,1.104325532913208
1732621171527411700,3.63941162109375,-6.317101001739502,6.339846134185791,1.2767080068588257
1732621171537453300,3.649453369140625,-7.1023993492126465,6.301538944244385,1.391629695892334
1732621171547494700,3.65949462890625,-7.859565734863281,6.186617374420166,1.1139023303985596
1732621171557536000,3.669535888671875,-8.333617210388184,6.244078159332275,0.5440823435783386
1732621171567577300,3.679577392578125,-8.453327178955078,6.36378812789917,0.23702596127986908
1732621171577618700,3.68961865234375,-8.199542045593262,6.387730121612549,0.22744916379451752
1732621171587660000,3.699659912109375,-7.486070156097412,6.473921298980713,0.6542156338691711
1732621171597701400,3.709701416015625,-6.685808181762695,6.56071138381958,0.9367313981056213
1732621171607742700,3.71974267578125,-6.206369400024414,6.838438510894775,0.8792705535888672
1732621171617784000,3.7297841796875,-6.192004203796387,7.00124454498291,1.0851719379425049
1732621171627825400,3.739825439453125,-6.436811447143555,7.082647323608398,1.18094003200531
1732621171637866800,3.74986669921875,-6.743268966674805,7.226299285888672,1.0755951404571533
1732621171647908400,3.759908447265625,-7.001842975616455,7.221510887145996,1.1378443241119385
1732621171657949700,3.76994970703125,-7.126341342926025,7.202357292175293,1.3341689109802246
1732621171667991000,3.779990966796875,-7.174225330352783,7.255029678344727,1.3006501197814941
1732621171678032400,3.790032470703125,-7.365761756896973,7.202357292175293,1.0947487354278564
1732621171688073500,3.800073486328125,-7.548319339752197,7.106589317321777,0.9319429993629456
1732621171698114300,3.8101142578125,-7.62493371963501,7.077858924865723,0.6733692288398743
1732621171708155400,3.8201552734375,-7.481281757354736,6.996456146240234,0.74040687084198
1732621171718196200,3.8301962890625,-7.140706539154053,6.991667747497559,1.1522095203399658
1732621171728237600,3.840237548828125,-6.9731125831604,7.006032943725586,1.3293805122375488
1732621171738161400,3.850161376953125,-6.944382190704346,6.982090473175049,1.3533225059509277
1732621171748095000,3.860094970703125,-7.06409215927124,6.905476093292236,1.2623428106307983
1732621171758041900,3.870041748046875,-7.088034152984619,6.785766124725342,1.2192472219467163
1732621171768005400,3.88000537109375,-6.982689380645752,6.780977725982666,1.2336124181747437
1732621171777986000,3.889986083984375,-6.8821330070495605,6.584653377532959,1.2288240194320679
1732621171787987500,3.899987548828125,-6.80551815032959,6.522404193878174,0.8170213103294373
1732621171798005800,3.910005859375,-6.771999359130859,6.5942301750183105,0.6925228238105774
1732621171808045800,3.9200458984375,-6.867767810821533,6.589441776275635,1.0372878313064575
1732621171818107000,3.93010693359375,-6.9922661781311035,6.613383769989014,1.1713632345199585
1732621171828187400,3.9401875,-7.0593037605285645,6.627748966217041,1.2575544118881226
1732621171838285000,3.95028515625,-7.083245754241943,6.622960567474365,1.2671312093734741
1732621171848397000,3.96039697265625,-7.092822551727295,6.6181721687316895,1.0660183429718018
1732621171858519600,3.97051953125,-7.097610950469971,6.790554523468018,1.104325532913208
1732621171868649000,3.98064892578125,-7.044938564300537,6.52719259262085,1.0995371341705322
1732621171878781700,3.99078173828125,-7.020996570587158,6.426037311553955,0.9702502489089966
1732621171888902700,4.000902587890625,-7.073668956756592,6.546346187591553,0.67815762758255
1732621171898943200,4.010943115234375,-7.289146900177002,6.613383769989014,0.8122329115867615
1732621171908983800,4.02098388671875,-7.356184959411621,6.699574947357178,1.0372878313064575
1732621171919024600,4.031024658203125,-7.202955722808838,6.804919719696045,1.080383539199829
1732621171929065200,4.041065185546875,-6.9060750007629395,6.828861713409424,1.1953052282333374
1732621171939106000,4.05110595703125,-6.7480573654174805,6.8336501121521,1.1426327228546143
1732621171949147100,4.061147216796875,-6.80551815032959,6.800131320953369,1.204882025718689
1732621171959188000,4.07118798828125,-6.997054576873779,6.7474589347839355,1.1617863178253174
1732621171969229300,4.081229248046875,-7.236474514007568,6.737882137298584,1.1091139316558838
1732621171979270700,4.091270751953125,-7.404667377471924,6.709151744842529,1.0851719379425049
1732621171989312000,4.10131201171875,-7.466916561126709,6.675632953643799,1.14742112159729
1732621171999353300,4.111353271484375,-7.471704959869385,6.809708118438721,0.8313865661621094
1732621172009395000,4.12139501953125,-7.452551364898682,6.785766124725342,0.67815762758255
1732621172019436800,4.131436767578125,-7.322665691375732,6.74267053604126,0.821809709072113
1732621172029478700,4.141478759765625,-7.169436931610107,6.723516941070557,0.9654618501663208
1732621172039520300,4.151520263671875,-6.9922661781311035,6.723516941070557,1.0947487354278564
1732621172049562400,4.161562255859375,-6.944382190704346,6.7043633460998535,1.2144588232040405
1732621172059604200,4.171604248046875,-7.179013729095459,6.642114162445068,1.2431892156600952
1732621172069646000,4.18164599609375,-7.414244174957275,6.541557788848877,1.2288240194320679
1732621172079688000,4.19168798828125,-7.596203327178955,6.493673324584961,1.0564415454864502
1732621172089729500,4.2017294921875,-7.687182903289795,6.435614109039307,0.8457517623901367
1732621172099771000,4.21177099609375,-7.581838130950928,6.430825710296631,0.8122329115867615
1732621172109812200,4.221812255859375,-7.313088893890381,6.473921298980713,0.8170213103294373
1732621172119853300,4.231853271484375,-7.193378925323486,6.4595561027526855,0.778714120388031
1732621172129894400,4.241894287109375,-7.1885905265808105,6.503250598907471,0.8649053573608398
1732621172139935500,4.251935546875,-7.202955722808838,6.541557788848877,0.9463081955909729
1732621172149976600,4.2619765625,-7.174225330352783,6.555922985076904,1.1139023303985596
1732621172160018000,4.272017822265625,-7.2556281089782715,6.512827396392822,1.2671312093734741
1732621172170059000,4.28205908203125,-7.3903021812438965,6.4595561027526855,1.0995371341705322
1732621172180100400,4.292100341796875,-7.519588947296143,6.3973069190979,0.8601169586181641
1732621172190141700,4.3021416015625,-7.620145320892334,6.344634532928467,0.7595604658126831
1732621172200183300,4.312183349609375,-7.510012149810791,6.358999729156494,0.6446388363838196
1732621172210224600,4.322224609375,-7.241262912750244,6.426037311553955,0.7356184720993042
1732621172220266200,4.332266357421875,-7.150283336639404,6.469132900238037,0.8936358094215393
1732621172230307800,4.342307861328125,-7.241262912750244,6.522404193878174,1.0085574388504028
1732621172240349400,4.352349365234375,-7.332242488861084,6.570288181304932,0.9846154451370239
1732621172250373600,4.36237353515625,-7.289146900177002,6.613383769989014,0.9463081955909729
1732621172260399000,4.372399169921875,-7.164648532867432,6.632537364959717,0.9319429993629456
1732621172270376200,4.382376220703125,-7.15507173538208,6.632537364959717,1.1426327228546143
1732621172280359700,4.392359619140625,-7.126341342926025,6.6612677574157715,1.1522095203399658
1732621172290347000,4.402346923828125,-7.140706539154053,6.622960567474365,0.9654618501663208
1732621172300344600,4.412344482421875,-7.222109317779541,6.565499782562256,0.960673451423645
1732621172310349600,4.422349609375,-7.351396083831787,6.541557788848877,0.8457517623901367
1732621172320367600,4.43236767578125,-7.380725383758545,6.575076580047607,0.67815762758255
1732621172330394000,4.44239404296875,-7.265204906463623,6.599018573760986,0.7643488645553589
1732621172340434400,4.452434326171875,-7.193378925323486,6.622960567474365,0.8649053573608398
1732621172350483200,4.462483154296875,-7.236474514007568,6.627748966217041,0.8409633636474609
1732621172360544500,4.47254443359375,-7.260416507720947,6.622960567474365,0.9415197968482971
1732621172370612200,4.4826123046875,-7.236474514007568,6.632537364959717,1.0516531467437744
1732621172380690000,4.49268994140625,-7.265204906463623,6.646902561187744,1.1091139316558838
1732621172390770700,4.502770751953125,-7.289146900177002,6.637325763702393,1.061229944229126
1732621172400858000,4.512858154296875,-7.289146900177002,6.570288181304932,0.9415197968482971
1732621172410950000,4.522949951171875,-7.322665691375732,6.493673324584961,0.8601169586181641
1732621172421043700,4.533043701171875,-7.370550155639648,6.48828649520874,0.7547720670700073
1732621172431136800,4.54313671875,-7.423820972442627,6.48828649520874,0.7212532758712769
1732621172441177900,4.553177734375,-7.385513782501221,6.5080389976501465,0.8409633636474609
1732621172451218700,4.56321875,-7.24605131149292,6.536769390106201,0.9654618501663208
1732621172461259800,4.573259765625,-7.12155294418335,6.555922985076904,1.0468647480010986
1732621172471300600,4.583300537109375,-7.073668956756592,6.555922985076904,1.0133458375930786
1732621172481341700,4.593341796875,-7.097610950469971,6.565499782562256,1.0564415454864502
1732621172491382800,4.6033828125,-7.250839710235596,6.517615795135498,1.1139023303985596
1732621172501423900,4.613423828125,-7.44297456741333,6.498462200164795,0.8792705535888672
1732621172511465200,4.62346533203125,-7.562684535980225,6.473921298980713,0.7595604658126831
1732621172521506600,4.633506591796875,-7.5674729347229,6.430825710296631,0.8409633636474609
1732621172531548000,4.6435478515625,-7.414244174957275,6.435614109039307,0.7595604658126831
1732621172541589200,4.65358935546875,-7.217320919036865,6.478709697723389,0.7595604658126831
1732621172551630800,4.663630859375,-7.116764545440674,6.536769390106201,0.8601169586181641
1732621172561672400,4.67367236328125,-7.068880558013916,6.565499782562256,1.0324994325637817
1732621172571714000,4.683714111328125,-7.140706539154053,6.56071138381958,1.104325532913208
1732621172581755600,4.693755615234375,-7.250839710235596,6.555922985076904,0.9319429993629456
1732621172591797500,4.703797607421875,-7.3418192863464355,6.522404193878174,0.9032126069068909
1732621172601839000,4.713839111328125,-7.395090579986572,6.531980991363525,0.8074445128440857
1732621172611881000,4.723880859375,-7.447762966156006,6.531980991363525,0.7691373229026794
1732621172621922800,4.7339228515625,-7.486070156097412,6.531980991363525,0.8361749649047852
1732621172631942700,4.743942626953125,-7.553107738494873,6.52719259262085,1.0085574388504028
1732621172641942300,4.7539423828125,-7.572261333465576,6.531980991363525,0.922366201877594
1732621172651942100,4.763942138671875,-7.4764933586120605,6.5080389976501465,0.7547720670700073
1732621172661943000,4.773943115234375,-7.2556281089782715,6.517615795135498,0.778714120388031
1732621172671946800,4.78394677734375,-7.049726963043213,6.52719259262085,1.0516531467437744
1732621172681954300,4.793954345703125,-7.111976146697998,6.546346187591553,1.027711033821106
1732621172691967200,4.80396728515625,-7.332242488861084,6.575076580047607,0.9654618501663208
1732621172701986300,4.813986328125,-7.4094557762146,6.570288181304932,1.0420763492584229
1732621172712012300,4.82401220703125,-7.2987236976623535,6.531980991363525,1.0468647480010986
1732621172722048500,4.834048583984375,-7.198167324066162,6.522404193878174,0.8744821548461914
1732621172732091600,4.844091552734375,-7.131129741668701,6.5080389976501465,0.8409633636474609
1732621172742142500,4.854142578125,-7.15507173538208,6.498462200164795,0.8792705535888672
1732621172752199000,4.864198974609375,-7.269993305206299,6.48828649520874,0.8984242081642151
1732621172762260500,4.874260498046875,-7.375936985015869,6.5080389976501465,0.884058952331543
1732621172772326100,4.884326171875,-7.457339763641357,6.498462200164795,0.9510966539382935
1732621172782394600,4.89439453125,-7.466916561126709,6.512827396392822,0.9367313981056213
1732621172792469800,4.9044697265625,-7.414244174957275,6.541557788848877,0.8888474106788635
1732621172802548000,4.9145478515625,-7.313088893890381,6.56071138381958,0.9127894043922424
1732621172812622600,4.92462255859375,-7.15507173538208,6.570288181304932,0.9702502489089966
1732621172822630700,4.934630615234375,-7.140706539154053,6.565499782562256,0.8984242081642151
1732621172832640000,4.944639892578125,-7.217320919036865,6.555922985076904,0.8361749649047852
1732621172842656500,4.954656494140625,-7.274781703948975,6.56071138381958,0.9510966539382935
1732621172852681200,4.96468115234375,-7.360973358154297,6.536769390106201,0.9558850526809692
1732621172862713000,4.974713134765625,-7.356184959411621,6.512827396392822,0.8792705535888672
1732621172872751600,4.984751708984375,-7.284358501434326,6.512827396392822,0.9415197968482971
1732621172882795000,4.994794921875,-7.274781703948975,6.52719259262085,1.061229944229126
1732621172892841700,5.004841796875,-7.269993305206299,6.536769390106201,1.0372878313064575
1732621172902891300,5.014891357421875,-7.24605131149292,6.536769390106201,0.8361749649047852
1732621172912943000,5.024943115234375,-7.265204906463623,6.512827396392822,0.7547720670700073
1732621172922997000,5.0349970703125,-7.375936985015869,6.536769390106201,0.7116764783859253
1732621172933052400,5.045052490234375,-7.360973358154297,6.536769390106201,0.7164648771286011
1732621172943108400,5.0551083984375,-7.293935298919678,6.565499782562256,0.8122329115867615
1732621172953164500,5.06516455078125,-7.207744121551514,6.570288181304932,0.9558850526809692
1732621172963210000,5.0752099609375,-7.131129741668701,6.579864978790283,0.9702502489089966
1732621172973260000,5.085260009765625,-7.1454949378967285,6.589441776275635,0.9702502489089966
1732621172983292400,5.09529248046875,-7.179013729095459,6.613383769989014,0.9846154451370239
1732621172993330200,5.105330078125,-7.193378925323486,6.637325763702393,0.9702502489089966
1732621173003368200,5.1153681640625,-7.222109317779541,6.642114162445068,0.884058952331543
1732621173013411300,5.125411376953125,-7.207744121551514,6.666056156158447,0.821809709072113
1732621173023454500,5.135454345703125,-7.226897716522217,6.65169095993042,0.8026561141014099
1732621173033502700,5.145502685546875,-7.260416507720947,6.627748966217041,0.7930793166160583
1732621173043541000,5.155541015625,-7.308300495147705,6.570288181304932,0.7164648771286011
1732621173053584100,5.165584228515625,-7.284358501434326,6.5511345863342285,0.7739257216453552
1732621173063623700,5.175623779296875,-7.236474514007568,6.531980991363525,0.8984242081642151
1732621173073668000,5.185668212890625,-7.24605131149292,6.546346187591553,0.884058952331543
1732621173083706000,5.1957060546875,-7.274781703948975,6.589441776275635,0.9894038438796997
1732621173093749200,5.205749267578125,-7.351396083831787,6.603806972503662,1.1426327228546143
1732621173103790600,5.21579052734375,-7.4333977699279785,6.603806972503662,1.14742112159729
1732621173113837000,5.225837158203125,-7.457339763641357,6.541557788848877,0.8265981078147888
1732621173123887600,5.2358876953125,-7.385513782501221,6.493673324584961,0.5632359385490417
1732621173133942000,5.24594189453125,-7.1454949378967285,6.512827396392822,0.6877344250679016
1732621173143999500,5.25599951171875,-7.011419773101807,6.546346187591553,0.8984242081642151
1732621173154059500,5.2660595703125,-7.174225330352783,6.6181721687316895,0.8505401611328125
1732621173164120800,5.276120849609375,-7.317877292633057,6.637325763702393,0.884058952331543
1732621173174183000,5.286182861328125,-7.269993305206299,6.65169095993042,1.0085574388504028
1732621173184240600,5.29624072265625,-7.116764545440674,6.68520975112915,1.1186907291412354
1732621173194282000,5.306281982421875,-7.054515361785889,6.689998149871826,0.9894038438796997
1732621173204323300,5.3163232421875,-7.044938564300537,6.689998149871826,0.9750386476516724
1732621173214364700,5.32636474609375,-7.068880558013916,6.689998149871826,0.9175778031349182
1732621173224406000,5.336406005859375,-7.183802127838135,6.694786548614502,0.8649053573608398
1732621173234447400,5.346447265625,-7.289146900177002,6.65169095993042,0.7978677153587341
1732621173244488700,5.35648876953125,-7.3418192863464355,6.627748966217041,0.7835025191307068
1732621173254530000,5.366530029296875,-7.303512096405029,6.646902561187744,0.8984242081642151
1732621173264571400,5.3765712890625,-7.207744121551514,6.666056156158447,0.9032126069068909
1732621173274612700,5.38661279296875,-7.0353617668151855,6.675632953643799,0.9367313981056213
1732621173284654000,5.396654052734375,-7.040150165557861,6.68520975112915,1.003769040107727
1732621173294695400,5.4066953125,-7.107187747955322,6.680421352386475,0.9941922426223755
1732621173304736800,5.41673681640625,-7.1885905265808105,6.694786548614502,1.0085574388504028
1732621173314778400,5.4267783203125,-7.308300495147705,6.699574947357178,1.0755951404571533
1732621173324819700,5.43681982421875,-7.317877292633057,6.666056156158447,0.9463081955909729
1732621173334861000,5.446861083984375,-7.202955722808838,6.608595371246338,0.8601169586181641
1732621173344902400,5.45690234375,-7.116764545440674,6.584653377532959,0.8457517623901367
1732621173354943700,5.46694384765625,-7.164648532867432,6.589441776275635,0.7978677153587341
1732621173364985300,5.4769853515625,-7.293935298919678,6.646902561187744,0.7978677153587341
1732621173375026700,5.487026611328125,-7.3903021812438965,6.699574947357178,0.8888474106788635
1732621173385068300,5.497068359375,-7.370550155639648,6.74267053604126,1.0133458375930786
1732621173395109400,5.507109375,-7.217320919036865,6.74267053604126,0.9941922426223755
1732621173405150700,5.517150634765625,-7.078457355499268,6.733093738555908,1.0899603366851807
1732621173415192000,5.527192138671875,-7.0353617668151855,6.723516941070557,1.14742112159729
1732621173425233200,5.537233154296875,-7.078457355499268,6.699574947357178,1.0229226350784302
1732621173435274500,5.5472744140625,-7.1885905265808105,6.666056156158447,0.8744821548461914
1732621173445315800,5.55731591796875,-7.236474514007568,6.666056156158447,0.8649053573608398
1732621173455357000,5.56735693359375,-7.2125325202941895,6.694786548614502,0.8984242081642151
1732621173465398300,5.577398193359375,-7.159860134124756,6.7043633460998535,0.8696937561035156
1732621173475439600,5.587439697265625,-7.12155294418335,6.718728542327881,0.9367313981056213
1732621173485481000,5.59748095703125,-7.083245754241943,6.713940143585205,1.0229226350784302
1732621173495522300,5.607522216796875,-7.083245754241943,6.699574947357178,0.9367313981056213
1732621173505564000,5.61756396484375,-7.131129741668701,6.689998149871826,0.8457517623901367
1732621173515605200,5.627605224609375,-7.179013729095459,6.680421352386475,0.8265981078147888
1732621173525646600,5.637646484375,-7.202955722808838,6.670844554901123,0.8505401611328125
1732621173535688000,5.64768798828125,-7.202955722808838,6.65169095993042,0.9750386476516724
1732621173545729500,5.6577294921875,-7.222109317779541,6.666056156158447,1.027711033821106
1732621173555771000,5.66777099609375,-7.27957010269165,6.699574947357178,0.9750386476516724
1732621173565812200,5.677812255859375,-7.274781703948975,6.7043633460998535,0.9319429993629456
1732621173575853800,5.687853759765625,-7.159860134124756,6.718728542327881,0.8984242081642151
1732621173585779700,5.69777978515625,-6.997054576873779,6.7043633460998535,0.9463081955909729
1732621173595714800,5.70771484375,-6.886921405792236,6.68520975112915,0.9463081955909729
1732621173605663000,5.7176630859375,-6.953958988189697,6.694786548614502,0.9271546006202698
1732621173615627800,5.727627685546875,-7.068880558013916,6.713940143585205,0.9846154451370239
1732621173625611000,5.737611083984375,-7.097610950469971,6.723516941070557,0.9080010056495667
1732621173635615000,5.747614990234375,-7.092822551727295,6.699574947357178,0.8744821548461914
1732621173645639700,5.7576396484375,-7.078457355499268,6.689998149871826,0.8505401611328125
1732621173655685000,5.76768505859375,-7.073668956756592,6.733093738555908,0.9080010056495667
1732621173665750500,5.77775048828125,-7.044938564300537,6.780977725982666,1.0947487354278564
1732621173675834000,5.787834228515625,-7.006631374359131,6.819284915924072,1.1857284307479858
1732621173685933300,5.797933349609375,-6.944382190704346,6.828861713409424,1.080383539199829
1732621173696045000,5.808045166015625,-6.9491705894470215,6.800131320953369,1.0229226350784302
1732621173706166500,5.81816650390625,-7.025784969329834,6.804919719696045,1.080383539199829
1732621173716293600,5.828293701171875,-7.111976146697998,6.809708118438721,1.0324994325637817
1732621173726422800,5.8384228515625,-7.12155294418335,6.8144965171813965,0.9702502489089966
1732621173736516900,5.848516845703125,-7.020996570587158,6.824073314666748,0.9654618501663208
1732621173746558200,5.85855810546875,-6.977900981903076,6.852803707122803,0.9846154451370239
1732621173756599600,5.868599609375,-6.9922661781311035,6.910264492034912,1.0755951404571533
1732621173766640600,5.878640625,-7.011419773101807,6.943783283233643,1.1857284307479858
1732621173776681700,5.888681640625,-7.054515361785889,6.943783283233643,1.14742112159729
1732621173786723000,5.89872314453125,-7.006631374359131,6.919841289520264,1.0995371341705322
1732621173796764200,5.90876416015625,-6.963535785675049,6.871957302093506,1.1905168294906616
1732621173806805200,5.91880517578125,-7.03057336807251,6.804919719696045,1.1522095203399658
1732621173816846600,5.9288466796875,-7.140706539154053,6.766612529754639,1.061229944229126
1732621173826888000,5.938887939453125,-7.198167324066162,6.757035732269287,1.0420763492584229
1732621173836833000,5.9488330078125,-7.15507173538208,6.800131320953369,1.0564415454864502
1732621173846786000,5.9587861328125,-7.0593037605285645,6.800131320953369,1.0564415454864502
1732621173856750000,5.96875,-6.963535785675049,6.785766124725342,0.960673451423645
1732621173866727400,5.9787275390625,-6.925228595733643,6.785766124725342,0.9702502489089966
1732621173876720600,5.988720703125,-6.9731125831604,6.800131320953369,1.0372878313064575
1732621173886730800,5.998730712890625,-7.054515361785889,6.795342922210693,1.0947487354278564
1732621173896758300,6.00875830078125,-7.092822551727295,6.7714009284973145,1.1091139316558838
1732621173906803200,6.01880322265625,-7.044938564300537,6.800131320953369,1.061229944229126
1732621173916864500,6.028864501953125,-6.958747386932373,6.795342922210693,1.0181342363357544
1732621173926941000,6.03894091796875,-6.925228595733643,6.809708118438721,1.0755951404571533
1732621173937030700,6.04903076171875,-6.997054576873779,6.828861713409424,0.960673451423645
1732621173947130600,6.059130615234375,-7.0593037605285645,6.824073314666748,0.8649053573608398
1732621173957238800,6.06923876953125,-7.03057336807251,6.819284915924072,0.884058952331543
1732621173967351600,6.0793515625,-7.020996570587158,6.824073314666748,0.8936358094215393
1732621173977466000,6.089466064453125,-7.03057336807251,6.790554523468018,0.922366201877594
1732621173987551500,6.099551513671875,-6.944382190704346,6.795342922210693,1.0229226350784302
1732621173997592800,6.1095927734375,-6.858190536499023,6.785766124725342,1.1139023303985596
1732621174007634200,6.11963427734375,-6.858190536499023,6.752247333526611,1.14742112159729
1732621174017675500,6.129675537109375,-7.054515361785889,6.752247333526611,1.061229944229126
1732621174027716900,6.139716796875,-7.24605131149292,6.7474589347839355,0.9941922426223755
1732621174037758000,6.149758056640625,-7.303512096405029,6.733093738555908,0.9941922426223755
1732621174047799000,6.159799072265625,-7.226897716522217,6.709151744842529,0.9846154451370239
1732621174057840000,6.169840087890625,-7.049726963043213,6.713940143585205,1.0468647480010986
1732621174067881500,6.179881591796875,-6.934805393218994,6.718728542327881,1.0755951404571533
1732621174077922600,6.189922607421875,-6.963535785675049,6.7474589347839355,1.1569979190826416
1732621174087953400,6.199953369140625,-7.150283336639404,6.74267053604126,1.061229944229126
1732621174097985000,6.209985107421875,-7.284358501434326,6.718728542327881,1.0755951404571533
1732621174108017700,6.220017578125,-7.207744121551514,6.737882137298584,1.1186907291412354
1732621174118052000,6.230052001953125,-7.049726963043213,6.7474589347839355,1.0851719379425049
1732621174128088300,6.24008837890625,-6.9731125831604,6.757035732269287,1.1905168294906616
1732621174138126300,6.250126220703125,-6.997054576873779,6.785766124725342,1.1426327228546143
1732621174148166100,6.260166259765625,-7.0353617668151855,6.8144965171813965,1.1617863178253174
1732621174158208300,6.270208251953125,-7.078457355499268,6.8144965171813965,1.2623428106307983
1732621174168252000,6.280251953125,-7.12155294418335,6.766612529754639,1.2288240194320679
1732621174178297000,6.290297119140625,-7.1454949378967285,6.728305339813232,1.128267526626587
1732621174188344000,6.300343994140625,-7.111976146697998,6.699574947357178,1.1378443241119385
1732621174198392000,6.31039208984375,-7.12155294418335,6.699574947357178,1.1426327228546143
1732621174208440800,6.32044091796875,-7.226897716522217,6.709151744842529,1.1234791278839111
1732621174218490000,6.330489990234375,-7.24605131149292,6.7474589347839355,1.2096704244613647
1732621174228539600,6.34053955078125,-7.202955722808838,6.77618932723999,1.2910733222961426
1732621174238587000,6.3505869140625,-7.202955722808838,6.74267053604126,1.2144588232040405
1732621174248627500,6.36062744140625,-7.241262912750244,6.7043633460998535,1.1617863178253174
1732621174258668000,6.37066796875,-7.269993305206299,6.670844554901123,1.1953052282333374
1732621174268708900,6.380708984375,-7.274781703948975,6.6612677574157715,1.1522095203399658
1732621174278749400,6.39074951171875,-7.226897716522217,6.666056156158447,1.128267526626587
1732621174288790300,6.400790283203125,-7.1885905265808105,6.632537364959717,1.0995371341705322
1732621174298831000,6.4108310546875,-7.169436931610107,6.613383769989014,1.0660183429718018
1732621174308872200,6.4208720703125,-7.179013729095459,6.613383769989014,1.1569979190826416
1732621174318913300,6.430913330078125,-7.198167324066162,6.637325763702393,1.1713632345199585
1732621174328954600,6.44095458984375,-7.198167324066162,6.632537364959717,1.1139023303985596
1732621174338996000,6.450995849609375,-7.140706539154053,6.6612677574157715,1.1378443241119385
1732621174349037600,6.46103759765625,-7.1885905265808105,6.675632953643799,1.1139023303985596
1732621174359079400,6.471079345703125,-7.24605131149292,6.6612677574157715,1.128267526626587
1732621174369121300,6.481121337890625,-7.265204906463623,6.670844554901123,1.1569979190826416
1732621174379163100,6.4911630859375,-7.198167324066162,6.68520975112915,1.1139023303985596
1732621174389205000,6.501205078125,-7.126341342926025,6.646902561187744,1.080383539199829
1732621174399246800,6.511246826171875,-7.06409215927124,6.670844554901123,1.0755951404571533
1732621174409289000,6.5212890625,-7.049726963043213,6.670844554901123,1.1186907291412354
1732621174419330800,6.531330810546875,-7.1454949378967285,6.699574947357178,1.0851719379425049
1732621174429372400,6.541372314453125,-7.24605131149292,6.699574947357178,1.0372878313064575
1732621174439413800,6.551413818359375,-7.217320919036865,6.6612677574157715,0.9846154451370239
1732621174449454800,6.561454833984375,-7.111976146697998,6.666056156158447,1.0181342363357544
1732621174459496200,6.57149609375,-6.963535785675049,6.670844554901123,1.003769040107727
1732621174469537300,6.581537353515625,-6.953958988189697,6.65169095993042,1.0516531467437744
1732621174479578400,6.591578369140625,-7.150283336639404,6.68520975112915,1.1857284307479858
1732621174489619500,6.601619384765625,-7.293935298919678,6.675632953643799,1.1905168294906616
1732621174499660800,6.611660888671875,-7.308300495147705,6.656479358673096,1.1617863178253174
1732621174509702000,6.621701904296875,-7.260416507720947,6.608595371246338,1.061229944229126
1732621174519743200,6.6317431640625,-7.116764545440674,6.622960567474365,0.9415197968482971
1732621174529784600,6.64178466796875,-7.054515361785889,6.6612677574157715,0.9894038438796997
1732621174539826200,6.651826171875,-7.088034152984619,6.766612529754639,1.1234791278839111
1732621174549867500,6.661867431640625,-7.193378925323486,6.8336501121521,1.18094003200531
1732621174559909000,6.6719091796875,-7.207744121551514,6.8336501121521,1.1905168294906616
1732621174569950500,6.681950439453125,-7.1023993492126465,6.824073314666748,1.2000936269760132
1732621174579992000,6.691991943359375,-7.020996570587158,6.8144965171813965,1.2527660131454468
1732621174590033700,6.70203369140625,-7.0353617668151855,6.800131320953369,1.2431892156600952
1732621174600075300,6.7120751953125,-7.097610950469971,6.795342922210693,1.2192472219467163
1732621174610116600,6.72211669921875,-7.135918140411377,6.804919719696045,1.2096704244613647
1732621174620158200,6.732158203125,-7.12155294418335,6.737882137298584,1.1569979190826416
1732621174630199600,6.742199462890625,-7.107187747955322,6.7043633460998535,1.0372878313064575
1732621174640241000,6.752240966796875,-7.092822551727295,6.68520975112915,1.0851719379425049
1732621174650282500,6.762282470703125,-7.097610950469971,6.68520975112915,1.1139023303985596
1732621174660324000,6.772323974609375,-7.135918140411377,6.699574947357178,1.080383539199829
1732621174670365400,6.782365478515625,-7.179013729095459,6.689998149871826,1.0851719379425049
1732621174680407000,6.792406982421875,-7.174225330352783,6.656479358673096,1.1617863178253174
1732621174690374400,6.80237451171875,-7.236474514007568,6.670844554901123,1.1330559253692627
1732621174700347400,6.812347412109375,-7.289146900177002,6.642114162445068,1.1905168294906616
1732621174710324200,6.82232421875,-7.33703088760376,6.622960567474365,1.1713632345199585
1732621174720312000,6.83231201171875,-7.313088893890381,6.637325763702393,1.080383539199829
1732621174730307300,6.842307373046875,-7.226897716522217,6.666056156158447,1.0708067417144775
1732621174740316700,6.852316650390625,-7.088034152984619,6.694786548614502,1.1234791278839111
1732621174750336300,6.862336181640625,-6.963535785675049,6.718728542327881,1.1665748357772827
1732621174760371000,6.872370849609375,-6.934805393218994,6.709151744842529,1.061229944229126
1732621174770415600,6.88241552734375,-7.044938564300537,6.713940143585205,0.9558850526809692
1732621174780475000,6.892474853515625,-7.15507173538208,6.7043633460998535,0.9654618501663208
1732621174790542300,6.902542236328125,-7.15507173538208,6.699574947357178,0.9989806413650513
1732621174800621600,6.91262158203125,-7.107187747955322,6.670844554901123,1.080383539199829
1732621174810706000,6.922705810546875,-7.0593037605285645,6.68520975112915,1.18094003200531
1732621174820798000,6.9327978515625,-7.083245754241943,6.694786548614502,1.2336124181747437
1732621174830895400,6.942895263671875,-7.169436931610107,6.709151744842529,1.1091139316558838
1732621174840995800,6.952995849609375,-7.169436931610107,6.718728542327881,0.922366201877594
1732621174851096800,6.963096923828125,-7.131129741668701,6.713940143585205,1.003769040107727
1732621174861151700,6.97315185546875,-7.111976146697998,6.694786548614502,0.9798270463943481
1732621174871192800,6.98319287109375,-7.159860134124756,6.656479358673096,0.8744821548461914
1732621174881234000,6.99323388671875,-7.217320919036865,6.646902561187744,0.9271546006202698
1732621174891275000,7.00327490234375,-7.207744121551514,6.68520975112915,1.0181342363357544
1732621174901316400,7.01331640625,-7.131129741668701,6.728305339813232,1.104325532913208
1732621174911357400,7.023357421875,-7.073668956756592,6.757035732269287,1.14742112159729
1732621174921398500,7.0333984375,-7.006631374359131,6.804919719696045,1.1330559253692627
1732621174931439900,7.04343994140625,-6.9731125831604,6.809708118438721,1.128267526626587
1732621174941481200,7.053481201171875,-7.044938564300537,6.800131320953369,1.0516531467437744
1732621174951522600,7.0635224609375,-7.1885905265808105,6.718728542327881,0.9510966539382935
1732621174961564000,7.07356396484375,-7.269993305206299,6.666056156158447,0.8888474106788635
1732621174971605500,7.08360546875,-7.193378925323486,6.6181721687316895,0.8457517623901367
1732621174981646800,7.093646728515625,-7.03057336807251,6.65169095993042,0.8744821548461914
1732621174991688400,7.1036884765625,-6.944382190704346,6.713940143585205,0.9654618501663208
1732621175001730000,7.11372998046875,-7.011419773101807,6.761824131011963,1.061229944229126
1732621175011771600,7.123771728515625,-7.088034152984619,6.766612529754639,1.1234791278839111
1732621175021813200,7.133813232421875,-7.0593037605285645,6.728305339813232,1.0468647480010986
1732621175031854800,7.143854736328125,-7.03057336807251,6.680421352386475,1.0420763492584229
1732621175041896700,7.153896728515625,-7.0593037605285645,6.709151744842529,1.1091139316558838
1732621175051938300,7.163938232421875,-7.025784969329834,6.752247333526611,1.061229944229126
1732621175061942000,7.17394189453125,-7.025784969329834,6.785766124725342,0.9798270463943481
1732621175071942400,7.1839423828125,-7.044938564300537,6.752247333526611,1.003769040107727
1732621175081942000,7.19394189453125,-7.126341342926025,6.699574947357178,0.9271546006202698
1732621175091943400,7.203943359375,-7.179013729095459,6.646902561187744,0.884058952331543
1732621175101948200,7.2139482421875,-7.1885905265808105,6.646902561187744,0.9798270463943481
1732621175111957500,7.22395751953125,-7.183802127838135,6.689998149871826,1.0899603366851807
1732621175121972500,7.233972412109375,-7.226897716522217,6.694786548614502,1.0468647480010986
1732621175131993900,7.243993896484375,-7.202955722808838,6.713940143585205,0.9654618501663208
1732621175142027000,7.254027099609375,-7.164648532867432,6.709151744842529,1.0181342363357544
1732621175152070000,7.26406982421875,-7.15507173538208,6.713940143585205,1.0851719379425049
1732621175162120200,7.2741201171875,-7.140706539154053,6.675632953643799,1.0755951404571533
1732621175172176100,7.284176025390625,-7.15507173538208,6.666056156158447,1.080383539199829
1732621175182237200,7.2942373046875,-7.15507173538208,6.627748966217041,0.9989806413650513
1732621175192302000,7.304302001953125,-7.179013729095459,6.637325763702393,0.9941922426223755
1732621175202369800,7.314369873046875,-7.207744121551514,6.613383769989014,0.922366201877594
1732621175212439300,7.324439208984375,-7.193378925323486,6.637325763702393,0.884058952331543
1732621175222513700,7.334513671875,-7.169436931610107,6.632537364959717,0.9032126069068909
1732621175232589800,7.34458984375,-7.126341342926025,6.666056156158447,0.9846154451370239
1732621175242617300,7.354617431640625,-7.088034152984619,6.694786548614502,1.0660183429718018
1732621175252644900,7.364644775390625,-7.0593037605285645,6.7043633460998535,1.0995371341705322
1732621175262673000,7.3746728515625,-7.073668956756592,6.713940143585205,1.0899603366851807
1732621175272706800,7.384706787109375,-7.12155294418335,6.713940143585205,1.0995371341705322
1732621175282746600,7.39474658203125,-7.135918140411377,6.689998149871826,0.9989806413650513
1732621175292791600,7.40479150390625,-7.150283336639404,6.666056156158447,0.9750386476516724
1732621175302839800,7.41483984375,-7.193378925323486,6.632537364959717,0.9654618501663208
1732621175312888000,7.42488818359375,-7.207744121551514,6.5942301750183105,0.9032126069068909
1732621175322934800,7.434934814453125,-7.222109317779541,6.642114162445068,1.0324994325637817
1732621175332977700,7.444977783203125,-7.183802127838135,6.627748966217041,1.0564415454864502
1732621175343017700,7.455017822265625,-7.159860134124756,6.675632953643799,1.0660183429718018
1732621175353058000,7.46505810546875,-7.164648532867432,6.699574947357178,1.1139023303985596
1732621175363098000,7.47509814453125,-7.135918140411377,6.694786548614502,1.0708067417144775
1732621175373138400,7.485138427734375,-7.044938564300537,6.709151744842529,1.0564415454864502
1732621175383179000,7.495178955078125,-7.040150165557861,6.675632953643799,1.061229944229126
1732621175393224400,7.505224365234375,-7.107187747955322,6.637325763702393,1.0085574388504028
1732621175403266300,7.515266357421875,-7.303512096405029,6.575076580047607,0.9510966539382935
1732621175413312500,7.5253125,-7.44297456741333,6.522404193878174,0.8888474106788635
1732621175423350300,7.535350341796875,-7.4764933586120605,6.503250598907471,0.9510966539382935
1732621175433393000,7.545392822265625,-7.2556281089782715,6.517615795135498,1.0995371341705322
1732621175443431700,7.555431640625,-6.9922661781311035,6.555922985076904,1.1713632345199585
1732621175453475300,7.565475341796875,-7.0353617668151855,6.65169095993042,1.1569979190826416
1732621175463514600,7.5755146484375,-7.198167324066162,6.680421352386475,1.1617863178253174
1732621175473558500,7.58555859375,-7.202955722808838,6.694786548614502,1.0708067417144775
1732621175483597600,7.59559765625,-7.12155294418335,6.68520975112915,1.0947487354278564
1732621175493641500,7.605641357421875,-7.073668956756592,6.666056156158447,1.0708067417144775
1732621175503680300,7.61568017578125,-7.097610950469971,6.656479358673096,1.061229944229126
1732621175513724000,7.625723876953125,-7.088034152984619,6.680421352386475,1.0851719379425049
1732621175523763000,7.635762939453125,-7.097610950469971,6.689998149871826,1.0947487354278564
1732621175533806800,7.645806884765625,-7.116764545440674,6.680421352386475,1.1617863178253174
1732621175543855400,7.65585546875,-7.107187747955322,6.656479358673096,1.1713632345199585
1732621175553907700,7.66590771484375,-7.159860134124756,6.646902561187744,1.1186907291412354
1732621175563964000,7.6759638671875,-7.231686115264893,6.6181721687316895,1.1569979190826416
1732621175574022700,7.686022705078125,-7.322665691375732,6.6181721687316895,1.0708067417144775
1732621175584083500,7.69608349609375,-7.385513782501221,6.622960567474365,1.0564415454864502
1732621175594145300,7.706145263671875,-7.3903021812438965,6.675632953643799,1.0995371341705322
1732621175604207600,7.71620751953125,-7.322665691375732,6.733093738555908,1.1713632345199585
1732621175614256000,7.726256103515625,-7.183802127838135,6.733093738555908,1.2384008169174194
1732621175624297000,7.736296875,-7.025784969329834,6.680421352386475,1.1953052282333374
1732621175634338000,7.746338134765625,-6.982689380645752,6.627748966217041,1.1186907291412354
1732621175644379000,7.75637890625,-7.078457355499268,6.589441776275635,1.1139023303985596
1732621175654419700,7.766419677734375,-7.236474514007568,6.584653377532959,1.1330559253692627
1732621175664460800,7.776460693359375,-7.365761756896973,6.608595371246338,1.2288240194320679
1732621175674502000,7.786501953125,-7.303512096405029,6.6181721687316895,1.104325532913208
1732621175684543000,7.79654296875,-7.164648532867432,6.627748966217041,1.1186907291412354
1732621175694584000,7.806583984375,-7.0593037605285645,6.65169095993042,1.1761516332626343
1732621175704625400,7.81662548828125,-7.040150165557861,6.632537364959717,1.2623428106307983
1732621175714666800,7.826666748046875,-7.088034152984619,6.613383769989014,1.2336124181747437
1732621175724708000,7.8367080078125,-7.116764545440674,6.613383769989014,1.2192472219467163
1732621175734749700,7.846749755859375,-7.083245754241943,6.584653377532959,1.0947487354278564
1732621175744791300,7.856791259765625,-7.073668956756592,6.555922985076904,1.061229944229126
1732621175754833000,7.8668330078125,-7.140706539154053,6.531980991363525,1.0851719379425049
1732621175764874500,7.87687451171875,-7.2556281089782715,6.52719259262085,1.1330559253692627
1732621175774916000,7.886916015625,-7.236474514007568,6.498462200164795,1.1713632345199585
1732621175784958000,7.8969580078125,-7.207744121551514,6.536769390106201,1.14742112159729
1732621175794999600,7.90699951171875,-7.164648532867432,6.579864978790283,1.1091139316558838
1732621175805041400,7.91704150390625,-7.1885905265808105,6.584653377532959,1.0468647480010986
1732621175815083000,7.9270830078125,-7.274781703948975,6.546346187591553,0.9080010056495667
1732621175825004500,7.937004638671875,-7.404667377471924,6.546346187591553,0.8984242081642151
1732621175834935600,7.946935546875,-7.423820972442627,6.531980991363525,0.9271546006202698
1732621175844880400,7.95688037109375,-7.4094557762146,6.555922985076904,0.9894038438796997
1732621175854841900,7.966841796875,-7.462128162384033,6.555922985076904,1.2144588232040405
1732621175864823000,7.976822998046875,-7.577049732208252,6.522404193878174,1.3868412971496582
1732621175874825000,7.986824951171875,-7.5674729347229,6.493673324584961,1.3581109046936035
1732621175884849200,7.99684912109375,-7.360973358154297,6.478709697723389,1.324592113494873
1732621175894894600,8.00689453125,-7.260416507720947,6.493673324584961,1.3437457084655762
1732621175904960800,8.016960693359374,-7.226897716522217,6.579864978790283,1.2623428106307983
1732621175915045600,8.027045654296876,-7.322665691375732,6.666056156158447,1.1522095203399658
1732621175925142000,8.03714208984375,-7.250839710235596,6.627748966217041,1.1905168294906616
1732621175935252200,8.047252197265625,-7.083245754241943,6.627748966217041,1.1617863178253174
1732621175945372400,8.057372314453126,-6.9731125831604,6.56071138381958,1.2623428106307983
1732621175955499800,8.067499755859375,-7.0593037605285645,6.565499782562256,1.449090600013733
1732621175965630000,8.0776298828125,-7.222109317779541,6.531980991363525,1.3868412971496582
1732621175975745300,8.087745361328125,-7.457339763641357,6.4595561027526855,1.204882025718689
1732621175985787000,8.097786865234376,-7.538742542266846,6.349422931671143,1.0995371341705322
1732621175995828200,8.107828125,-7.356184959411621,6.368576526641846,0.9080010056495667
1732621176005869600,8.11786962890625,-7.313088893890381,6.411672115325928,0.8649053573608398
1732621176015910700,8.12791064453125,-7.284358501434326,6.445190906524658,0.9798270463943481
1732621176025951700,8.13795166015625,-7.222109317779541,6.541557788848877,1.0947487354278564
1732621176035992800,8.147992919921874,-7.202955722808838,6.584653377532959,1.2096704244613647
1732621176046034200,8.1580341796875,-7.27957010269165,6.632537364959717,1.1905168294906616
1732621176056075300,8.1680751953125,-7.356184959411621,6.575076580047607,1.2192472219467163
1732621176066116400,8.178116455078126,-7.33703088760376,6.512827396392822,1.1665748357772827
1732621176076157700,8.18815771484375,-7.308300495147705,6.498462200164795,1.224035620689392
1732621176086079700,8.198079833984375,-7.322665691375732,6.503250598907471,1.2767080068588257
1732621176096011500,8.208011474609375,-7.332242488861084,6.541557788848877,1.3006501197814941
1732621176105957000,8.21795703125,-7.265204906463623,6.589441776275635,1.224035620689392
1732621176115919400,8.22791943359375,-7.207744121551514,6.642114162445068,1.1665748357772827
1732621176125900800,8.23790087890625,-7.2125325202941895,6.632537364959717,1.2096704244613647
1732621176135903500,8.247903564453125,-7.236474514007568,6.5942301750183105,1.1426327228546143
1732621176145927700,8.257927734375,-7.27957010269165,6.555922985076904,1.18094003200531
1732621176155973600,8.2679736328125,-7.289146900177002,6.5080389976501465,1.1665748357772827
1732621176166039800,8.278039794921876,-7.27957010269165,6.478709697723389,1.1330559253692627
1732621176176124700,8.288124755859375,-7.303512096405029,6.4834980964660645,1.1186907291412354
1732621176186225700,8.2982255859375,-7.327454090118408,6.5511345863342285,1.1330559253692627
1732621176196340000,8.308340087890626,-7.303512096405029,6.656479358673096,1.0947487354278564
1732621176206463700,8.318463623046876,-7.260416507720947,6.74267053604126,1.080383539199829
1732621176216593700,8.32859375,-7.131129741668701,6.780977725982666,1.1617863178253174
1732621176226725600,8.3387255859375,-7.040150165557861,6.737882137298584,1.1330559253692627
1732621176236821200,8.3488212890625,-7.040150165557861,6.5942301750183105,1.0708067417144775
1732621176246862600,8.358862548828125,-7.1885905265808105,6.45476770401001,1.0133458375930786
1732621176256904000,8.368904052734376,-7.3903021812438965,6.344634532928467,1.080383539199829
1732621176266945300,8.3789453125,-7.5004353523254395,6.301538944244385,1.1522095203399658
1732621176276986600,8.388986572265624,-7.4094557762146,6.378153324127197,1.1761516332626343
1732621176287028000,8.399028076171875,-7.2556281089782715,6.445190906524658,1.2192472219467163
1732621176297069600,8.409069580078125,-7.15507173538208,6.498462200164795,1.1617863178253174
1732621176307111000,8.41911083984375,-7.217320919036865,6.546346187591553,1.0564415454864502
1732621176317152300,8.42915234375,-7.265204906463623,6.565499782562256,0.9702502489089966
1732621176327193600,8.439193603515625,-7.2556281089782715,6.584653377532959,1.0181342363357544
1732621176337114400,8.4491142578125,-7.083245754241943,6.5511345863342285,1.1330559253692627
1732621176347044900,8.459044921875,-7.078457355499268,6.5511345863342285,1.14742112159729
1732621176356989000,8.468989013671875,-7.308300495147705,6.603806972503662,1.224035620689392
1732621176366950100,8.4789501953125,-7.438186168670654,6.656479358673096,1.3006501197814941
1732621176376930800,8.488930908203125,-7.303512096405029,6.709151744842529,1.367687702178955
1732621176386932700,8.4989326171875,-7.078457355499268,6.689998149871826,1.3581109046936035
1732621176396956700,8.508956787109375,-6.891709804534912,6.670844554901123,1.2767080068588257
1732621176407002400,8.51900244140625,-6.958747386932373,6.666056156158447,1.2144588232040405
1732621176417068500,8.529068603515626,-7.164648532867432,6.632537364959717,1.1522095203399658
1732621176427153700,8.539153564453125,-7.274781703948975,6.613383769989014,1.0564415454864502
1732621176437253600,8.549253662109376,-7.250839710235596,6.579864978790283,1.0755951404571533
1732621176447367200,8.5593671875,-7.174225330352783,6.565499782562256,1.1139023303985596
1732621176457490700,8.56949072265625,-7.15507173538208,6.56071138381958,1.0851719379425049
1732621176467620600,8.57962060546875,-7.135918140411377,6.579864978790283,1.1522095203399658
1732621176477752800,8.5897529296875,-7.15507173538208,6.565499782562256,1.2336124181747437
1732621176487855900,8.59985595703125,-7.274781703948975,6.536769390106201,1.2096704244613647
1732621176497897200,8.609897216796876,-7.4333977699279785,6.522404193878174,1.1761516332626343
1732621176507938600,8.6199384765625,-7.519588947296143,6.493673324584961,1.0899603366851807
1732621176517980000,8.62997998046875,-7.481281757354736,6.531980991363525,1.1761516332626343
1732621176528021200,8.640021240234375,-7.365761756896973,6.570288181304932,1.1761516332626343
1732621176538046000,8.6500458984375,-7.2125325202941895,6.632537364959717,1.2192472219467163
1732621176548072000,8.660072021484375,-7.011419773101807,6.6612677574157715,1.2910733222961426
1732621176558099700,8.670099609375,-6.896498203277588,6.656479358673096,1.2814964056015015
1732621176568129800,8.6801298828125,-6.9060750007629395,6.656479358673096,1.224035620689392
1732621176578162700,8.69016259765625,-6.9731125831604,6.642114162445068,1.2767080068588257
1732621176588198400,8.700198486328125,-7.011419773101807,6.603806972503662,1.2000936269760132
1732621176598237200,8.7102373046875,-7.088034152984619,6.565499782562256,1.1330559253692627
1732621176608279000,8.720279052734375,-7.226897716522217,6.52719259262085,1.0468647480010986
1732621176618323700,8.73032373046875,-7.466916561126709,6.478709697723389,1.0372878313064575
1732621176628371200,8.74037109375,-7.591414928436279,6.392518520355225,1.1713632345199585
1732621176638420700,8.750420654296875,-7.519588947296143,6.3973069190979,1.2767080068588257
1732621176648472300,8.760472412109374,-7.447762966156006,6.478709697723389,1.2623428106307983
1732621176658525200,8.770525146484376,-7.5004353523254395,6.546346187591553,1.2144588232040405
1732621176668579000,8.7805791015625,-7.486070156097412,6.613383769989014,1.1522095203399658
1732621176678633000,8.790633056640624,-7.380725383758545,6.670844554901123,1.1617863178253174
1732621176688683300,8.800683349609375,-7.313088893890381,6.65169095993042,1.0708067417144775
1732621176698724900,8.810724853515625,-7.308300495147705,6.627748966217041,1.0181342363357544
1732621176708766200,8.82076611328125,-7.2125325202941895,6.627748966217041,1.027711033821106
1732621176718807300,8.830807373046875,-7.097610950469971,6.718728542327881,1.2336124181747437
1732621176728848400,8.840848388671875,-7.025784969329834,6.780977725982666,1.2862848043441772
1732621176738889500,8.850889404296876,-7.0353617668151855,6.809708118438721,1.391629695892334
1732621176748930800,8.860930908203125,-6.925228595733643,6.694786548614502,1.3341689109802246
1732621176758972000,8.870971923828124,-6.982689380645752,6.613383769989014,1.1569979190826416
1732621176769013000,8.881012939453125,-7.226897716522217,6.503250598907471,1.061229944229126
1732621176779054300,8.891054443359375,-7.5866265296936035,6.445190906524658,0.8888474106788635
1732621176789095700,8.901095703125,-7.620145320892334,6.503250598907471,0.9080010056495667
1732621176799137000,8.911136962890625,-7.289146900177002,6.522404193878174,1.0085574388504028
1732621176809178400,8.921178466796874,-6.968324184417725,6.646902561187744,1.0516531467437744
1732621176819220000,8.931219970703125,-6.963535785675049,6.757035732269287,0.9894038438796997
1732621176829261300,8.94126123046875,-6.977900981903076,6.713940143585205,1.18094003200531
1732621176839303000,8.951302978515624,-6.910863399505615,6.723516941070557,1.1091139316558838
1732621176849344500,8.961344482421875,-6.8342485427856445,6.637325763702393,1.0899603366851807
1732621176859385900,8.9713857421875,-6.848613739013672,6.608595371246338,1.1617863178253174
1732621176869428000,8.981427978515624,-6.9060750007629395,6.632537364959717,1.1569979190826416
1732621176879468500,8.991468505859375,-7.03057336807251,6.627748966217041,1.0708067417144775
1732621176889510100,9.00151025390625,-7.15507173538208,6.589441776275635,1.0516531467437744
1732621176899551500,9.011551513671876,-7.2125325202941895,6.570288181304932,1.080383539199829
1732621176909593000,9.021593017578125,-7.202955722808838,6.575076580047607,1.14742112159729
1732621176919634700,9.031634765625,-7.150283336639404,6.5942301750183105,1.1953052282333374
1732621176929676000,9.041676025390625,-7.222109317779541,6.5511345863342285,1.4059948921203613
1732621176939717400,9.05171728515625,-7.370550155639648,6.6181721687316895,1.3868412971496582
1732621176949758500,9.061758544921876,-7.44297456741333,6.5942301750183105,1.3150153160095215
1732621176959799600,9.071799560546875,-7.481281757354736,6.575076580047607,1.2096704244613647
1732621176969841000,9.0818408203125,-7.4333977699279785,6.570288181304932,1.2192472219467163
1732621176979882200,9.09188232421875,-7.351396083831787,6.584653377532959,1.2575544118881226
1732621176989923300,9.10192333984375,-7.3418192863464355,6.575076580047607,1.1569979190826416
1732621176999964700,9.111964599609376,-7.365761756896973,6.5511345863342285,1.128267526626587
1732621177010006000,9.122006103515625,-7.327454090118408,6.56071138381958,1.1139023303985596
1732621177020047000,9.132047119140625,-7.327454090118408,6.56071138381958,1.0708067417144775
1732621177030088400,9.14208837890625,-7.313088893890381,6.589441776275635,1.0468647480010986
1732621177040129800,9.1521298828125,-7.217320919036865,6.589441776275635,1.224035620689392
1732621177050054400,9.162054443359375,-7.169436931610107,6.575076580047607,1.3628993034362793
1732621177059988500,9.171988525390624,-7.140706539154053,6.56071138381958,1.3437457084655762
1732621177069935900,9.181935791015626,-7.274781703948975,6.503250598907471,1.3724761009216309
1732621177079900000,9.19189990234375,-7.274781703948975,6.517615795135498,1.204882025718689
1732621177089882600,9.201882568359375,-7.356184959411621,6.464344501495361,1.0947487354278564
1732621177099886000,9.211885986328125,-7.3903021812438965,6.512827396392822,1.027711033821106
1732621177109908700,9.22190869140625,-7.351396083831787,6.56071138381958,1.1713632345199585
1732621177119952600,9.23195263671875,-7.24605131149292,6.622960567474365,1.2336124181747437
1732621177130012200,9.24201220703125,-7.1454949378967285,6.65169095993042,1.2431892156600952
1732621177140090400,9.25209033203125,-7.078457355499268,6.646902561187744,1.2958617210388184
1732621177150180600,9.2621806640625,-7.078457355499268,6.608595371246338,1.2336124181747437
1732621177160285000,9.272284912109376,-7.198167324066162,6.56071138381958,1.1905168294906616
1732621177170395600,9.282395751953125,-7.346607685089111,6.512827396392822,1.1665748357772827
1732621177180514600,9.2925146484375,-7.4094557762146,6.478709697723389,1.1330559253692627
1732621177190633200,9.30263330078125,-7.346607685089111,6.5080389976501465,1.0372878313064575
1732621177200753700,9.312753662109374,-7.231686115264893,6.541557788848877,1.0420763492584229
1732621177210714600,9.322714599609375,-7.179013729095459,6.603806972503662,1.2096704244613647
1732621177220683500,9.33268359375,-7.293935298919678,6.608595371246338,1.1857284307479858
1732621177230658300,9.342658203125,-7.332242488861084,6.570288181304932,1.1713632345199585
1732621177240646100,9.352646240234375,-7.217320919036865,6.536769390106201,1.2144588232040405
1732621177250648600,9.362648681640625,-7.097610950469971,6.48828649520874,1.1713632345199585
1732621177260666600,9.37266650390625,-7.116764545440674,6.503250598907471,1.0995371341705322
1732621177270700500,9.382700439453124,-7.284358501434326,6.517615795135498,1.1186907291412354
1732621177280750000,9.39275,-7.385513782501221,6.503250598907471,1.1378443241119385
1732621177290814200,9.402814208984376,-7.360973358154297,6.473921298980713,1.0995371341705322
1732621177300891400,9.412891357421875,-7.289146900177002,6.469132900238037,1.0133458375930786
1732621177310979800,9.422979736328125,-7.231686115264893,6.498462200164795,1.1330559253692627
1732621177321077200,9.4330771484375,-7.1454949378967285,6.579864978790283,1.1905168294906616
1732621177331180500,9.4431806640625,-7.0593037605285645,6.622960567474365,1.2623428106307983
1732621177341287400,9.453287353515625,-7.016208171844482,6.613383769989014,1.2671312093734741
1732621177351395300,9.463395263671876,-7.083245754241943,6.6181721687316895,1.1713632345199585
1732621177361455900,9.473455810546875,-7.202955722808838,6.584653377532959,1.003769040107727
1732621177371497000,9.4834970703125,-7.265204906463623,6.56071138381958,1.0708067417144775
1732621177381537800,9.493537841796876,-7.308300495147705,6.555922985076904,1.1426327228546143
1732621177391578600,9.50357861328125,-7.317877292633057,6.575076580047607,1.2288240194320679
1732621177401619500,9.513619384765626,-7.332242488861084,6.603806972503662,1.2958617210388184
1732621177411660500,9.52366064453125,-7.332242488861084,6.65169095993042,1.3437457084655762
1732621177421701400,9.533701416015624,-7.289146900177002,6.675632953643799,1.3150153160095215
1732621177431742500,9.543742431640625,-7.284358501434326,6.680421352386475,1.3389573097229004
1732621177441783800,9.55378369140625,-7.231686115264893,6.603806972503662,1.2000936269760132
1732621177451825200,9.5638251953125,-7.222109317779541,6.603806972503662,1.2144588232040405
1732621177461866500,9.573866455078125,-7.2987236976623535,6.570288181304932,1.224035620689392
1732621177471907800,9.583907958984375,-7.365761756896973,6.579864978790283,1.27191960811615
1732621177481942000,9.59394189453125,-7.351396083831787,6.5942301750183105,1.3581109046936035
1732621177491942100,9.603942138671876,-7.2556281089782715,6.603806972503662,1.3868412971496582
1732621177501942000,9.61394189453125,-7.207744121551514,6.584653377532959,1.2575544118881226
1732621177511942400,9.6239423828125,-7.241262912750244,6.555922985076904,1.1905168294906616
1732621177521945000,9.633945068359376,-7.260416507720947,6.536769390106201,1.2000936269760132
1732621177531951400,9.643951416015625,-7.265204906463623,6.531980991363525,1.14742112159729
1732621177541962500,9.65396240234375,-7.260416507720947,6.512827396392822,1.1234791278839111
1732621177551979800,9.663979736328125,-7.236474514007568,6.478709697723389,1.0708067417144775
1732621177562008300,9.67400830078125,-7.1885905265808105,6.469132900238037,1.080383539199829
1732621177572047600,9.684047607421874,-7.1885905265808105,6.469132900238037,1.080383539199829
1732621177582095000,9.69409521484375,-7.24605131149292,6.4595561027526855,1.0420763492584229
1732621177592149200,9.704149169921875,-7.351396083831787,6.45476770401001,1.104325532913208
1732621177602208300,9.714208251953124,-7.346607685089111,6.469132900238037,1.1857284307479858
1732621177612271600,9.724271728515625,-7.365761756896973,6.473921298980713,1.14742112159729
1732621177622337500,9.734337646484375,-7.4764933586120605,6.469132900238037,1.0995371341705322
1732621177632405800,9.74440576171875,-7.404667377471924,6.449979305267334,1.1091139316558838
1732621177642479400,9.754479248046875,-7.2125325202941895,6.478709697723389,1.080383539199829
1732621177652556000,9.76455615234375,-7.140706539154053,6.493673324584961,1.1330559253692627
1732621177662576600,9.77457666015625,-7.2125325202941895,6.517615795135498,1.18094003200531
1732621177672598000,9.784597900390626,-7.351396083831787,6.522404193878174,1.1091139316558838
1732621177682621000,9.794620849609375,-7.375936985015869,6.503250598907471,1.0995371341705322
1732621177692651000,9.804651123046876,-7.360973358154297,6.52719259262085,1.104325532913208
1732621177702688300,9.814688232421876,-7.217320919036865,6.512827396392822,1.1139023303985596
1732621177712727800,9.824727783203125,-7.15507173538208,6.56071138381958,1.1857284307479858
1732621177722773500,9.8347734375,-7.231686115264893,6.603806972503662,1.2336124181747437
1732621177732822500,9.844822509765624,-7.3418192863464355,6.5942301750183105,1.224035620689392
1732621177742873300,9.854873291015625,-7.399878978729248,6.565499782562256,1.1378443241119385
1732621177752925000,9.864925048828125,-7.322665691375732,6.541557788848877,1.0899603366851807
1732621177762977000,9.87497705078125,-7.226897716522217,6.541557788848877,1.1330559253692627
1732621177773029400,9.885029296875,-7.179013729095459,6.575076580047607,1.2910733222961426
1732621177783073000,9.895072998046874,-7.193378925323486,6.622960567474365,1.3389573097229004
1732621177793114400,9.9051142578125,-7.1454949378967285,6.646902561187744,1.2336124181747437
1732621177803155700,9.91515576171875,-7.169436931610107,6.632537364959717,1.0899603366851807
1732621177813202000,9.925201904296875,-7.1885905265808105,6.603806972503662,1.080383539199829
1732621177823238700,9.93523876953125,-7.193378925323486,6.584653377532959,1.2000936269760132
1732621177833280300,9.9452802734375,-7.207744121551514,6.56071138381958,1.3102269172668457
1732621177843321300,9.9553212890625,-7.207744121551514,6.546346187591553,1.4012064933776855
1732621177853367300,9.9653671875,-7.33703088760376,6.589441776275635,1.27191960811615
1732621177863404000,9.975404052734374,-7.44297456741333,6.68520975112915,1.2144588232040405
1732621177873446000,9.98544580078125,-7.360973358154297,6.392518520355225,0.9750386476516724
1732621177883486700,9.99548681640625,-7.241262912750244,6.406883716583252,0.9127894043922424
1732621177893532700,10.00553271484375,-7.289146900177002,6.440402507781982,1.1569979190826416
1732621177903569700,10.015569580078125,-7.375936985015869,6.493673324584961,1.3437457084655762
1732621177913611500,10.025611572265625,-7.395090579986572,6.522404193878174,1.3389573097229004
1732621177923652400,10.03565234375,-7.260416507720947,6.522404193878174,1.247977614402771
1732621177933698000,10.045697998046874,-7.179013729095459,6.512827396392822,1.1234791278839111
1732621177943748000,10.055748046875,-7.193378925323486,6.52719259262085,1.1426327228546143
1732621177953802200,10.06580224609375,-7.2987236976623535,6.541557788848877,1.1665748357772827
1732621177963859500,10.075859375,-7.3903021812438965,6.536769390106201,1.2096704244613647
1732621177973919200,10.085919189453126,-7.365761756896973,6.52719259262085,1.2623428106307983
1732621177983980500,10.09598046875,-7.2556281089782715,6.536769390106201,1.2096704244613647
1732621177994042600,10.106042724609376,-7.231686115264893,6.546346187591553,1.1905168294906616
1732621178004103700,10.116103759765625,-7.231686115264893,6.56071138381958,1.1953052282333374
1732621178014145000,10.12614501953125,-7.231686115264893,6.570288181304932,1.1330559253692627
1732621178024186400,10.136186279296876,-7.2987236976623535,6.5511345863342285,1.1186907291412354
1732621178034227700,10.146227783203125,-7.351396083831787,6.531980991363525,1.1665748357772827
1732621178044269000,10.15626904296875,-7.308300495147705,6.5080389976501465,1.2096704244613647
1732621178054310400,10.166310302734376,-7.222109317779541,6.517615795135498,1.2431892156600952
1732621178064351700,10.176351806640625,-7.226897716522217,6.546346187591553,1.2000936269760132
1732621178074393000,10.18639306640625,-7.308300495147705,6.541557788848877,1.0995371341705322
1732621178084434400,10.196434326171875,-7.303512096405029,6.512827396392822,1.0181342363357544
1732621178094475800,10.206475830078125,-7.179013729095459,6.546346187591553,1.027711033821106
1732621178104517000,10.21651708984375,-7.116764545440674,6.5511345863342285,1.0947487354278564
1732621178114558500,10.226558349609375,-7.231686115264893,6.541557788848877,1.1665748357772827
1732621178124600000,10.23660009765625,-7.385513782501221,6.522404193878174,1.2575544118881226
1732621178134641400,10.246641357421876,-7.4094557762146,6.503250598907471,1.14742112159729
1732621178144682800,10.256682861328125,-7.332242488861084,6.4834980964660645,1.0899603366851807
1732621178154724000,10.26672412109375,-7.164648532867432,6.4595561027526855,1.0899603366851807
1732621178164765400,10.276765380859375,-7.1023993492126465,6.5080389976501465,1.080383539199829
1732621178174806800,10.286806884765625,-7.24605131149292,6.570288181304932,1.1330559253692627
1732621178184848100,10.29684814453125,-7.327454090118408,6.579864978790283,1.2144588232040405
1732621178194889500,10.306889404296875,-7.269993305206299,6.56071138381958,1.1953052282333374
1732621178204930800,10.316930908203124,-7.2125325202941895,6.5511345863342285,1.2814964056015015
1732621178214972200,10.32697216796875,-7.169436931610107,6.575076580047607,1.2767080068588257
1732621178225013500,10.337013427734375,-7.179013729095459,6.613383769989014,1.1857284307479858
1732621178235054800,10.347054931640624,-7.207744121551514,6.613383769989014,1.1522095203399658
1732621178245096200,10.35709619140625,-7.236474514007568,6.5942301750183105,1.18094003200531
1732621178255137500,10.367137451171875,-7.289146900177002,6.570288181304932,1.1091139316558838
1732621178265179000,10.377178955078126,-7.327454090118408,6.541557788848877,1.1091139316558838
1732621178275100700,10.3871005859375,-7.293935298919678,6.52719259262085,1.1665748357772827
1732621178285032200,10.3970322265625,-7.322665691375732,6.536769390106201,1.18094003200531
1732621178294977000,10.40697705078125,-7.327454090118408,6.555922985076904,1.14742112159729
1732621178304939000,10.41693896484375,-7.313088893890381,6.5511345863342285,1.061229944229126
1732621178314920200,10.426920166015625,-7.356184959411621,6.536769390106201,1.0324994325637817
1732621178324922600,10.436922607421875,-7.370550155639648,6.517615795135498,1.0324994325637817
1732621178334942500,10.4469423828125,-7.33703088760376,6.48828649520874,1.0708067417144775
1732621178344984300,10.456984375,-7.269993305206299,6.512827396392822,1.1426327228546143
1732621178355047200,10.467047119140625,-7.236474514007568,6.52719259262085,1.1857284307479858
1732621178365129500,10.47712939453125,-7.2556281089782715,6.52719259262085,1.1234791278839111
1732621178375228400,10.487228515625,-7.289146900177002,6.4834980964660645,1.0324994325637817
1732621178385341400,10.497341552734374,-7.303512096405029,6.4164605140686035,0.9941922426223755
1732621178395465000,10.50746484375,-7.375936985015869,6.368576526641846,0.9846154451370239
1732621178405595100,10.51759521484375,-7.351396083831787,6.36378812789917,1.0516531467437744
1732621178415728400,10.527728271484374,-7.269993305206299,6.382941722869873,1.0899603366851807
1732621178425841400,10.53784130859375,-7.231686115264893,6.426037311553955,1.2000936269760132
1732621178435882500,10.547882568359375,-7.236474514007568,6.430825710296631,1.1330559253692627
1732621178445923800,10.557923828125,-7.2987236976623535,6.430825710296631,1.0085574388504028
1732621178455965000,10.56796484375,-7.365761756896973,6.402095317840576,1.003769040107727
1732621178466006000,10.578006103515625,-7.438186168670654,6.368576526641846,1.0516531467437744
1732621178476047000,10.588047119140626,-7.447762966156006,6.368576526641846,1.0755951404571533
1732621178486088400,10.59808837890625,-7.399878978729248,6.382941722869873,1.080383539199829
1732621178496129500,10.608129638671874,-7.303512096405029,6.3973069190979,1.0947487354278564
1732621178506171000,10.6181708984375,-7.2556281089782715,6.45476770401001,1.0516531467437744
1732621178516212200,10.628212158203125,-7.313088893890381,6.478709697723389,1.0181342363357544
1732621178526253600,10.638253662109374,-7.380725383758545,6.464344501495361,1.0851719379425049
1732621178536295200,10.648295166015625,-7.3418192863464355,6.445190906524658,1.0516531467437744
1732621178546336800,10.658336669921875,-7.293935298919678,6.469132900238037,0.960673451423645
1732621178556378000,10.668378173828126,-7.293935298919678,6.464344501495361,0.9846154451370239
1732621178566419700,10.678419677734375,-7.452551364898682,6.478709697723389,1.0229226350784302
1732621178576461300,10.68846142578125,-7.600991725921631,6.445190906524658,0.9558850526809692
1732621178586453500,10.69845361328125,-7.600991725921631,6.411672115325928,1.0564415454864502
1732621178596449500,10.708449462890625,-7.3418192863464355,6.3733649253845215,1.0468647480010986
1732621178606451200,10.718451171875,-7.116764545440674,6.3973069190979,1.080383539199829
1732621178616460000,10.7284599609375,-7.183802127838135,6.4595561027526855,1.1091139316558838
1732621178626476500,10.7384765625,-7.365761756896973,6.493673324584961,1.0468647480010986
1732621178636502000,10.748501953125,-7.44297456741333,6.469132900238037,1.003769040107727
1732621178646536200,10.7585361328125,-7.370550155639648,6.426037311553955,0.9941922426223755
1732621178656579300,10.768579345703126,-7.260416507720947,6.421248912811279,1.0755951404571533
1732621178666631000,10.778630859375,-7.226897716522217,6.464344501495361,1.1713632345199585
1732621178676690400,10.7886904296875,-7.241262912750244,6.536769390106201,1.1665748357772827
1732621178686756400,10.79875634765625,-7.370550155639648,6.464344501495361,1.128267526626587
1732621178696827600,10.80882763671875,-7.265204906463623,6.45476770401001,1.0564415454864502
1732621178706903000,10.818903076171875,-7.226897716522217,6.392518520355225,1.0564415454864502
1732621178716981000,10.82898095703125,-7.346607685089111,6.335057735443115,1.0229226350784302
1732621178727060000,10.83906005859375,-7.452551364898682,6.368576526641846,0.9798270463943481
1732621178737123800,10.849123779296875,-7.519588947296143,6.3733649253845215,1.0133458375930786
1732621178747165400,10.85916552734375,-7.510012149810791,6.411672115325928,1.0085574388504028
1732621178757206800,10.869206787109375,-7.505223751068115,6.449979305267334,1.0420763492584229
1732621178767248100,10.879248046875,-7.548319339752197,6.48828649520874,1.104325532913208
1732621178777289500,10.88928955078125,-7.471704959869385,6.469132900238037,1.18094003200531
1732621178787330000,10.899330078125,-7.346607685089111,6.430825710296631,1.1905168294906616
1732621178797371000,10.909370849609376,-7.2987236976623535,6.4164605140686035,1.0947487354278564
1732621178807411500,10.919411376953125,-7.317877292633057,6.426037311553955,0.9941922426223755
1732621178817452300,10.929452392578124,-7.3418192863464355,6.440402507781982,0.9510966539382935
1732621178827493400,10.939493408203125,-7.33703088760376,6.464344501495361,0.9654618501663208
1732621178837417500,10.94941748046875,-7.2987236976623535,6.478709697723389,1.027711033821106
1732621178847351300,10.959351318359374,-7.250839710235596,6.469132900238037,1.0995371341705322
1732621178857298400,10.96929833984375,-7.2125325202941895,6.493673324584961,1.1426327228546143
1732621178867262200,10.97926220703125,-7.217320919036865,6.498462200164795,1.1091139316558838
1732621178877245000,10.989244873046875,-7.303512096405029,6.464344501495361,1.104325532913208
1732621178887243800,10.999243896484375,-7.360973358154297,6.421248912811279,1.14742112159729
1732621178897264000,11.00926416015625,-7.399878978729248,6.387730121612549,1.061229944229126
1732621178907306200,11.01930615234375,-7.4333977699279785,6.354211330413818,1.1091139316558838
1732621178917369000,11.029369140625,-7.4333977699279785,6.3973069190979,1.0372878313064575
1732621178927451100,11.039451171875,-7.4094557762146,6.430825710296631,1.0372878313064575
1732621178937549800,11.0495498046875,-7.370550155639648,6.478709697723389,1.0851719379425049
1732621178947662300,11.059662353515625,-7.365761756896973,6.469132900238037,1.0851719379425049
1732621178957785000,11.06978515625,-7.356184959411621,6.464344501495361,1.0755951404571533
1732621178967914800,11.079914794921875,-7.375936985015869,6.464344501495361,1.0995371341705322
1732621178978047000,11.090046875,-7.2987236976623535,6.469132900238037,1.1186907291412354
1732621178988158500,11.100158447265626,-7.198167324066162,6.512827396392822,1.1569979190826416
1732621178998199800,11.11019970703125,-7.164648532867432,6.48828649520874,1.1713632345199585
1732621179008241200,11.1202412109375,-7.313088893890381,6.503250598907471,1.1234791278839111
1732621179018282500,11.130282470703126,-7.5435309410095215,6.421248912811279,1.1426327228546143
1732621179028323800,11.14032373046875,-7.648875713348389,6.354211330413818,1.104325532913208
1732621179038365200,11.150365234375,-7.419032573699951,6.320692539215088,1.061229944229126
1732621179048406300,11.16040625,-7.1885905265808105,6.358999729156494,1.0851719379425049
1732621179058447600,11.170447509765625,-7.231686115264893,6.4595561027526855,1.1569979190826416
1732621179068488700,11.18048876953125,-7.414244174957275,6.52719259262085,1.1905168294906616
1732621179078530000,11.190530029296875,-7.4333977699279785,6.493673324584961,1.1378443241119385
1732621179088537300,11.200537353515625,-7.2987236976623535,6.440402507781982,1.0899603366851807
1732621179098547200,11.210547119140625,-7.202955722808838,6.430825710296631,1.0468647480010986
1732621179108561200,11.22056103515625,-7.265204906463623,6.469132900238037,1.1330559253692627
1732621179118579700,11.230579833984375,-7.322665691375732,6.531980991363525,1.204882025718689
1732621179128604000,11.24060400390625,-7.2987236976623535,6.541557788848877,1.2288240194320679
1732621179138634200,11.25063427734375,-7.260416507720947,6.48828649520874,1.0947487354278564
1732621179148670700,11.260670654296876,-7.27957010269165,6.445190906524658,1.0660183429718018
1732621179158713000,11.270713134765625,-7.360973358154297,6.426037311553955,1.128267526626587
1732621179168761600,11.28076171875,-7.447762966156006,6.426037311553955,1.1953052282333374
1732621179178815500,11.2908154296875,-7.4333977699279785,6.3973069190979,1.2862848043441772
1732621179188873700,11.300873779296875,-7.447762966156006,6.387730121612549,1.1665748357772827
1732621179198936000,11.31093603515625,-7.471704959869385,6.325480937957764,1.1761516332626343
1732621179209001000,11.3210009765625,-7.53395414352417,6.382941722869873,1.1091139316558838
1732621179219068000,11.33106787109375,-7.5435309410095215,6.358999729156494,1.128267526626587
1732621179229135400,11.34113525390625,-7.44297456741333,6.349422931671143,1.14742112159729
1732621179239192800,11.35119287109375,-7.370550155639648,6.3302693367004395,1.14742112159729
1732621179249234200,11.361234130859375,-7.395090579986572,6.349422931671143,1.0947487354278564
1732621179259275500,11.371275634765626,-7.466916561126709,6.36378812789917,1.0133458375930786
1732621179269316900,11.38131689453125,-7.514800548553467,6.354211330413818,1.0372878313064575
1732621179279358000,11.39135791015625,-7.452551364898682,6.349422931671143,1.0947487354278564
1732621179289399000,11.40139892578125,-7.360973358154297,6.349422931671143,1.1522095203399658
1732621179299440000,11.411440185546875,-7.317877292633057,6.358999729156494,1.224035620689392
1732621179309481500,11.4214814453125,-7.33703088760376,6.378153324127197,1.1665748357772827
1732621179319522600,11.4315224609375,-7.380725383758545,6.402095317840576,1.0899603366851807
1732621179329445600,11.441445556640625,-7.3903021812438965,6.387730121612549,1.0851719379425049
1732621179339378000,11.4513779296875,-7.351396083831787,6.3733649253845215,1.0420763492584229
1732621179349323800,11.46132373046875,-7.375936985015869,6.36378812789917,1.0229226350784302
1732621179359286500,11.47128662109375,-7.404667377471924,6.378153324127197,1.1139023303985596
1732621179369268200,11.481268310546875,-7.428609371185303,6.368576526641846,1.080383539199829
1732621179379271000,11.49127099609375,-7.505223751068115,6.378153324127197,1.104325532913208
1732621179389295400,11.50129541015625,-7.4764933586120605,6.406883716583252,1.104325532913208
1732621179399341000,11.511341064453125,-7.419032573699951,6.430825710296631,1.1186907291412354
1732621179409407000,11.521406982421874,-7.404667377471924,6.449979305267334,1.0947487354278564
1732621179419491300,11.5314912109375,-7.4094557762146,6.430825710296631,1.0468647480010986
1732621179429592000,11.541592041015624,-7.385513782501221,6.449979305267334,1.0564415454864502
1732621179439705900,11.551705810546874,-7.3418192863464355,6.387730121612549,1.1139023303985596
1732621179449829000,11.5618291015625,-7.399878978729248,6.3733649253845215,1.1186907291412354
1732621179459958500,11.57195849609375,-7.553107738494873,6.368576526641846,1.1713632345199585
1732621179470090000,11.582090087890625,-7.620145320892334,6.339846134185791,1.14742112159729
1732621179480185300,11.592185302734375,-7.538742542266846,6.335057735443115,1.1091139316558838
1732621179490227000,11.60222705078125,-7.284358501434326,6.301538944244385,1.1330559253692627
1732621179500151300,11.6121513671875,-7.250839710235596,6.339846134185791,1.080383539199829
1732621179510084900,11.6220849609375,-7.4094557762146,6.382941722869873,1.0995371341705322
1732621179520031500,11.632031494140625,-7.53395414352417,6.392518520355225,1.080383539199829
1732621179529994200,11.641994140625,-7.5674729347229,6.3302693367004395,1.003769040107727
1732621179539976000,11.651975830078126,-7.490858554840088,6.3063273429870605,1.0564415454864502
1732621179549974300,11.661974365234375,-7.3418192863464355,6.358999729156494,1.1617863178253174
1732621179559994400,11.671994384765625,-7.27957010269165,6.426037311553955,1.2384008169174194
1732621179570031400,11.68203125,-7.265204906463623,6.464344501495361,1.2384008169174194
1732621179580089600,11.692089599609375,-7.2987236976623535,6.449979305267334,1.1234791278839111
1732621179590162700,11.70216259765625,-7.33703088760376,6.402095317840576,1.1378443241119385
1732621179600253400,11.71225341796875,-7.414244174957275,6.368576526641846,1.0564415454864502
1732621179610354700,11.722354736328125,-7.4764933586120605,6.344634532928467,0.9319429993629456
1732621179620468500,11.732468505859375,-7.4333977699279785,6.3733649253845215,0.9271546006202698
1732621179630586000,11.742586181640625,-7.3418192863464355,6.368576526641846,1.061229944229126
1732621179640709600,11.752709716796875,-7.399878978729248,6.349422931671143,1.0324994325637817
1732621179650768600,11.7627685546875,-7.462128162384033,6.368576526641846,1.0133458375930786
1732621179660831700,11.772831787109375,-7.452551364898682,6.325480937957764,1.1569979190826416
1732621179670851600,11.7828515625,-7.481281757354736,6.291962146759033,1.1234791278839111
1732621179680876800,11.792876708984375,-7.4333977699279785,6.258443355560303,1.0660183429718018
1732621179690908200,11.802908203125,-7.495646953582764,6.248866558074951,0.922366201877594
1732621179700945700,11.812945556640624,-7.591414928436279,6.27280855178833,0.9032126069068909
1732621179710989300,11.8229892578125,-7.596203327178955,6.368576526641846,0.9175778031349182
1732621179721038800,11.833038818359375,-7.529165744781494,6.382941722869873,1.0516531467437744
1732621179731093500,11.843093505859375,-7.495646953582764,6.4164605140686035,1.0420763492584229
1732621179741152500,11.853152587890625,-7.490858554840088,6.411672115325928,1.0516531467437744
1732621179751215400,11.86321533203125,-7.495646953582764,6.402095317840576,1.1091139316558838
1732621179761280500,11.873280517578126,-7.495646953582764,6.402095317840576,1.1139023303985596
1732621179771347500,11.883347412109375,-7.490858554840088,6.402095317840576,1.0899603366851807
1732621179781414700,11.89341455078125,-7.438186168670654,6.406883716583252,1.0133458375930786
1732621179791468000,11.903468017578126,-7.428609371185303,6.426037311553955,0.960673451423645
1732621179801509400,11.91350927734375,-7.404667377471924,6.426037311553955,0.9989806413650513
1732621179811550700,11.92355078125,-7.365761756896973,6.392518520355225,0.9654618501663208
1732621179821591800,11.933591796875,-7.313088893890381,6.344634532928467,0.9750386476516724
1732621179831633000,11.9436328125,-7.3418192863464355,6.268020153045654,1.0468647480010986
1732621179841674000,11.953674072265626,-7.5004353523254395,6.2201361656188965,1.0324994325637817
1732621179851715000,11.963715087890625,-7.5674729347229,6.205770969390869,0.9941922426223755
1732621179861756400,11.97375634765625,-7.524377346038818,6.1770405769348145,0.9654618501663208
1732621179871797500,11.983797607421875,-7.538742542266846,6.186617374420166,0.9702502489089966
1732621179881838600,11.993838623046875,-7.53395414352417,6.229712963104248,0.884058952331543
1732621179891880000,12.0038798828125,-7.505223751068115,6.2392897605896,0.8936358094215393
1732621179901921300,12.01392138671875,-7.5004353523254395,6.229712963104248,0.9080010056495667
1732621179911943000,12.02394287109375,-7.610568523406982,6.311115741729736,0.960673451423645
1732621179921942000,12.03394189453125,-7.687182903289795,6.210559368133545,0.960673451423645
1732621179931926500,12.043926513671876,-7.577049732208252,6.2201361656188965,0.9846154451370239
1732621179941913300,12.053913330078124,-7.4094557762146,6.210559368133545,0.9941922426223755
1732621179951904500,12.063904541015624,-7.308300495147705,6.200982570648193,1.0324994325637817
1732621179961902000,12.073902099609375,-7.471704959869385,6.253654956817627,0.9894038438796997
1732621179971907300,12.0839072265625,-7.648875713348389,6.287173748016357,0.922366201877594
1732621179981921300,12.09392138671875,-7.644087314605713,6.301538944244385,0.8936358094215393
1732621179991945000,12.103945068359375,-7.495646953582764,6.320692539215088,0.9558850526809692
1732621180001981700,12.113981689453125,-7.332242488861084,6.36378812789917,1.0085574388504028
1732621180012029000,12.12402880859375,-7.260416507720947,6.3973069190979,1.061229944229126
1732621180022085400,12.13408544921875,-7.289146900177002,6.421248912811279,1.0229226350784302
1732621180032149500,12.1441494140625,-7.3903021812438965,6.3973069190979,0.9941922426223755
1732621180042220500,12.154220458984375,-7.486070156097412,6.339846134185791,0.9989806413650513
1732621180052296700,12.164296630859376,-7.5866265296936035,6.291962146759033,0.9271546006202698
1732621180062376400,12.17437646484375,-7.5866265296936035,6.27280855178833,0.884058952331543
1732621180072462600,12.184462646484375,-7.486070156097412,6.301538944244385,0.9319429993629456
1732621180082551600,12.194551513671875,-7.462128162384033,6.325480937957764,0.9894038438796997
1732621180092615400,12.204615478515626,-7.514800548553467,6.296750545501709,0.9367313981056213
1732621180102630000,12.2146298828125,-7.529165744781494,6.277596950531006,0.8792705535888672
1732621180112649700,12.224649658203125,-7.514800548553467,6.258443355560303,0.9415197968482971
1732621180122676200,12.23467626953125,-7.486070156097412,6.258443355560303,0.9846154451370239
1732621180132709400,12.24470947265625,-7.5004353523254395,6.224924564361572,0.9510966539382935
1732621180142749200,12.254749267578125,-7.572261333465576,6.234501361846924,0.9032126069068909
1732621180152794400,12.26479443359375,-7.605780124664307,6.282385349273682,0.8792705535888672
1732621180162842000,12.274842041015624,-7.529165744781494,6.315904140472412,0.9702502489089966
1732621180172891100,12.28489111328125,-7.414244174957275,6.339846134185791,1.003769040107727
1732621180182941200,12.294941162109374,-7.380725383758545,6.325480937957764,0.9032126069068909
1732621180192991500,12.304991455078126,-7.4094557762146,6.311115741729736,0.8936358094215393
1732621180203041800,12.315041748046875,-7.452551364898682,6.3302693367004395,0.9510966539382935
1732621180213085200,12.325085205078125,-7.505223751068115,6.325480937957764,0.9510966539382935
1732621180223126800,12.335126708984374,-7.553107738494873,6.320692539215088,0.9894038438796997
1732621180233168100,12.345168212890625,-7.529165744781494,6.335057735443115,1.027711033821106
1732621180243209200,12.355209228515625,-7.447762966156006,6.344634532928467,1.0516531467437744
1732621180253255400,12.36525537109375,-7.414244174957275,6.354211330413818,1.0324994325637817
1732621180263293200,12.375293212890625,-7.438186168670654,6.339846134185791,1.0133458375930786
1732621180273335600,12.38533544921875,-7.466916561126709,6.3302693367004395,0.9702502489089966
1732621180283374600,12.39537451171875,-7.519588947296143,6.315904140472412,0.8984242081642151
1732621180293418500,12.40541845703125,-7.524377346038818,6.3063273429870605,0.9127894043922424
1732621180303457500,12.41545751953125,-7.505223751068115,6.287173748016357,0.9319429993629456
1732621180313501200,12.425501220703126,-7.457339763641357,6.3063273429870605,0.9750386476516724
1732621180323540500,12.43554052734375,-7.462128162384033,6.344634532928467,1.0420763492584229
1732621180333584400,12.44558447265625,-7.5004353523254395,6.3733649253845215,1.0229226350784302
1732621180343623200,12.455623046875,-7.4094557762146,6.402095317840576,1.027711033821106
1732621180353666800,12.465666748046875,-7.303512096405029,6.387730121612549,1.0516531467437744
1732621180363708000,12.4757080078125,-7.332242488861084,6.339846134185791,1.0420763492584229
1732621180373753600,12.485753662109374,-7.529165744781494,6.349422931671143,1.003769040107727
1732621180383803600,12.4958037109375,-7.711124897003174,6.248866558074951,0.9846154451370239
1732621180393857500,12.505857421875,-7.75900936126709,6.210559368133545,0.9175778031349182
1732621180403914500,12.51591455078125,-7.510012149810791,6.234501361846924,0.9463081955909729
1732621180413974000,12.52597412109375,-7.27957010269165,6.291962146759033,1.0133458375930786
1732621180424035000,12.53603515625,-7.322665691375732,6.315904140472412,1.061229944229126
1732621180434097000,12.546096923828125,-7.462128162384033,6.354211330413818,0.960673451423645
1732621180444157000,12.556156982421875,-7.471704959869385,6.339846134185791,0.9510966539382935
1732621180454198300,12.5661982421875,-7.380725383758545,6.315904140472412,1.0133458375930786
1732621180464239600,12.576239501953125,-7.3418192863464355,6.325480937957764,1.1139023303985596
1732621180474281000,12.586281005859375,-7.3418192863464355,6.368576526641846,1.1617863178253174
1732621180484322600,12.596322509765624,-7.322665691375732,6.421248912811279,1.0468647480010986
1732621180494364000,12.606364013671875,-7.317877292633057,6.435614109039307,1.003769040107727
1732621180504405000,12.616405029296875,-7.375936985015869,6.426037311553955,1.1234791278839111
1732621180514446000,12.626446044921876,-7.44297456741333,6.387730121612549,1.080383539199829
1732621180524487200,12.636487060546875,-7.505223751068115,6.354211330413818,1.027711033821106
1732621180534528300,12.6465283203125,-7.519588947296143,6.378153324127197,1.0995371341705322
1732621180544569300,12.6565693359375,-7.514800548553467,6.387730121612549,1.1665748357772827
1732621180554610400,12.6666103515625,-7.481281757354736,6.387730121612549,1.1378443241119385
1732621180564651500,12.676651611328126,-7.423820972442627,6.354211330413818,1.1091139316558838
1732621180574692900,12.68669287109375,-7.466916561126709,6.315904140472412,1.0755951404571533
1732621180584734200,12.696734130859374,-7.53395414352417,6.287173748016357,1.0229226350784302
1732621180594775600,12.706775634765625,-7.53395414352417,6.268020153045654,1.080383539199829
1732621180604817000,12.71681689453125,-7.495646953582764,6.291962146759033,1.14742112159729
1732621180614858500,12.7268583984375,-7.471704959869385,6.3302693367004395,1.0660183429718018
1732621180624781000,12.736781005859376,-7.495646953582764,6.339846134185791,1.0085574388504028
1732621180634713300,12.74671337890625,-7.481281757354736,6.354211330413818,1.0229226350784302
1732621180644659200,12.7566591796875,-7.457339763641357,6.335057735443115,1.0851719379425049
1732621180654621700,12.76662158203125,-7.457339763641357,6.320692539215088,1.0851719379425049
1732621180664603600,12.776603759765624,-7.438186168670654,6.335057735443115,1.1426327228546143
1732621180674606300,12.7866064453125,-7.4094557762146,6.344634532928467,1.2192472219467163
1732621180684630800,12.796630859375,-7.385513782501221,6.344634532928467,1.1330559253692627
1732621180694676500,12.806676513671874,-7.395090579986572,6.325480937957764,1.0708067417144775
1732621180704742700,12.81674267578125,-7.3903021812438965,6.315904140472412,1.080383539199829
1732621180714827300,12.8268271484375,-7.399878978729248,6.339846134185791,1.0708067417144775
1732621180724923400,12.83692333984375,-7.44297456741333,6.325480937957764,1.0708067417144775
1732621180735032800,12.84703271484375,-7.495646953582764,6.344634532928467,1.061229944229126
1732621180745152500,12.857152587890624,-7.510012149810791,6.3733649253845215,1.14742112159729
1732621180755278800,12.86727880859375,-7.486070156097412,6.402095317840576,1.128267526626587
1732621180765408300,12.877408203125,-7.423820972442627,6.4164605140686035,1.1665748357772827
1732621180775522000,12.88752197265625,-7.3418192863464355,6.435614109039307,1.2000936269760132
1732621180785563400,12.8975634765625,-7.3418192863464355,6.411672115325928,1.1378443241119385
1732621180795604700,12.907604736328125,-7.452551364898682,6.392518520355225,1.0708067417144775
1732621180805646000,12.91764599609375,-7.486070156097412,6.368576526641846,1.0324994325637817
1732621180815687400,12.9276875,-7.3903021812438965,6.387730121612549,1.0564415454864502
1732621180825728800,12.937728759765625,-7.308300495147705,6.387730121612549,1.1378443241119385
1732621180835770000,12.94777001953125,-7.346607685089111,6.382941722869873,1.1234791278839111
1732621180845811200,12.957811279296875,-7.538742542266846,6.406883716583252,1.0899603366851807
1732621180855852300,12.967852294921874,-7.648875713348389,6.354211330413818,1.0372878313064575
1732621180865893400,12.977893310546875,-7.557896137237549,6.36378812789917,1.0995371341705322
1732621180875934500,12.9879345703125,-7.317877292633057,6.349422931671143,1.104325532913208
1732621180885975800,12.997975830078126,-7.226897716522217,6.3973069190979,1.1234791278839111
1732621180896017000,13.008016845703125,-7.293935298919678,6.430825710296631,1.1857284307479858
1732621180906058200,13.018058349609374,-7.414244174957275,6.440402507781982,1.128267526626587
1732621180916099600,13.028099609375,-7.428609371185303,6.392518520355225,1.0660183429718018
1732621180926141200,13.03814111328125,-7.33703088760376,6.378153324127197,1.1091139316558838
