time,seconds_elapsed,z,y,x
1731409967980174600,0.150174560546875,-0.23684024810791016,-0.014203548431396484,0.25954532623291016
1731409967989980200,0.159980224609375,-0.1591176986694336,0.03729057312011719,0.17588511109352112
1731409967999786500,0.169786376953125,-0.03664970397949219,0.10676431655883789,-0.009844467043876648
1731409968009591800,0.179591796875,-0.27341651916503906,-0.014461994171142578,-0.10210993885993958
1731409968019396600,0.189396728515625,-0.42874860763549805,-0.12979507446289062,-0.11840590834617615
1731409968029202200,0.1992021484375,-0.3213977813720703,0.0030994415283203125,-0.053787752985954285
1731409968039008500,0.209008544921875,-0.2987070083618164,-0.10372209548950195,-0.059262171387672424
1731409968048813800,0.218813720703125,-0.12118339538574219,-0.12483882904052734,-0.13971439003944397
1731409968058618600,0.22861865234375,-0.026009559631347656,-0.0358738899230957,-0.10446348041296005
1731409968068424200,0.238424072265625,-0.24773168563842773,-0.09810018539428711,-0.0685759112238884
1731409968078230500,0.24823046875,-0.5030841827392578,-0.1009378433227539,-0.02450355887413025
1731409968088035800,0.258035888671875,-0.5240964889526367,0.03917694091796875,0.007323741912841797
1731409968097840600,0.267840576171875,-0.3878464698791504,0.0511627197265625,-0.05444568395614624
1731409968107646200,0.277646240234375,-0.4050908088684082,-0.02795696258544922,-0.09517762809991837
1731409968117452500,0.28745263671875,-0.2915987968444824,-0.008603572845458984,-0.07704918086528778
1731409968127258000,0.297258056640625,-0.05893898010253906,0.03551292419433594,-0.07233251631259918
1731409968137062700,0.307062744140625,0.04663515090942383,-0.0003447532653808594,-0.09050257503986359
1731409968146868200,0.3168681640625,0.16144418716430664,0.09367942810058594,-0.057347118854522705
1731409968156674600,0.326674560546875,-0.009997844696044922,0.14217233657836914,-0.18787136673927307
1731409968166480100,0.336480224609375,-0.33695507049560547,0.2139267921447754,-0.2854600250720978
1731409968176284700,0.34628466796875,-0.4122462272644043,0.26593494415283203,-0.3078508675098419
1731409968186090200,0.35609033203125,-0.3073453903198242,0.25040483474731445,-0.2372070550918579
1731409968195896600,0.365896484375,-0.016237735748291016,0.14557981491088867,-0.16996586322784424
1731409968205702100,0.3757021484375,0.24854326248168945,0.08686161041259766,-0.1552850604057312
1731409968215506700,0.385506591796875,0.3220381736755371,0.005135059356689453,-0.09370878338813782
1731409968225312300,0.395312255859375,0.15916109085083008,0.017229557037353516,-0.03586864471435547
1731409968235118600,0.40511865234375,-0.1156148910522461,0.09566068649291992,-0.0633639395236969
1731409968244924200,0.414924072265625,-0.31477975845336914,0.19800519943237305,-0.09243306517601013
1731409968254729000,0.42472900390625,-0.25209569931030273,0.1860065460205078,-0.12217366695404053
1731409968264534300,0.4345341796875,-0.2296586036682129,0.12960577011108398,-0.17972129583358765
1731409968274340600,0.444340576171875,-0.2634592056274414,0.15871143341064453,-0.1533902883529663
1731409968284146200,0.454146240234375,-0.12442255020141602,0.13165664672851562,-0.12216117978096008
1731409968293951000,0.463950927734375,-0.028787612915039062,0.028487205505371094,-0.13885802030563354
1731409968303756500,0.473756591796875,0.2924795150756836,0.007812023162841797,-0.20064795017242432
1731409968313563000,0.48356298828125,0.5418300628662109,-0.08171987533569336,-0.3047710061073303
1731409968323368200,0.4933681640625,0.5359945297241211,-0.10704183578491211,-0.2576865553855896
1731409968333173000,0.503173095703125,0.3662710189819336,-0.09374141693115234,-0.2119634449481964
1731409968342978600,0.512978515625,0.2686347961425781,-0.10138940811157227,-0.24353116750717163
1731409968352785000,0.522784912109375,0.28899192810058594,-0.08786821365356445,-0.2580321133136749
1731409968362590200,0.532590087890625,0.5370244979858398,-0.2288646697998047,-0.3329525589942932
1731409968372395000,0.54239501953125,0.8241758346557617,-0.49610090255737305,-0.6099843978881836
1731409968382200600,0.55220068359375,0.3028707504272461,-0.27457284927368164,-0.7750186920166016
1731409968392007000,0.5620068359375,0.6263427734375,-0.007176399230957031,-0.02696293592453003
1731409968401812200,0.571812255859375,0.7643418312072754,0.2692131996154785,0.38873910903930664
1731409968411617000,0.581616943359375,0.636573314666748,0.4736194610595703,0.5575751662254333
1731409968421422600,0.591422607421875,0.6326508522033691,0.5745248794555664,0.738333523273468
1731409968431229000,0.60122900390625,0.7054095268249512,0.6513700485229492,0.7940457463264465
1731409968441034200,0.6110341796875,0.7530498504638672,0.7488498687744141,0.7421836853027344
1731409968450839000,0.620839111328125,0.5838761329650879,0.7352657318115234,0.6543066501617432
1731409968460644600,0.63064453125,0.04428434371948242,0.695918083190918,0.3832297921180725
1731409968470451000,0.640450927734375,-0.39438438415527344,0.7221012115478516,0.03131747245788574
1731409968480256300,0.65025634765625,-0.4662003517150879,0.7966790199279785,-0.22144901752471924
1731409968490061000,0.66006103515625,-0.33400774002075195,0.8354549407958984,-0.4138902425765991
1731409968499866600,0.66986669921875,0.0003490447998046875,0.7267751693725586,-0.5893168449401855
1731409968509673000,0.6796728515625,0.4743156433105469,0.49492549896240234,-0.7706741094589233
1731409968519478500,0.689478515625,0.6183352470397949,0.30899858474731445,-1.1623234748840332
1731409968529283000,0.699282958984375,0.885124683380127,0.18608856201171875,-1.6997548341751099
1731409968539088600,0.709088623046875,1.468045711517334,0.3234825134277344,-2.1255125999450684
1731409968548895000,0.71889501953125,1.948847770690918,0.5206313133239746,-2.4512386322021484
1731409968558700500,0.728700439453125,2.6782965660095215,0.6897954940795898,-2.717651844024658
1731409968568505000,0.738505126953125,3.361609935760498,0.9251418113708496,-2.628706455230713
1731409968578310700,0.748310546875,3.5250329971313477,1.0835967063903809,-2.651946783065796
1731409968588117000,0.758116943359375,3.9846110343933105,1.0008387565612793,-2.745728015899658
1731409968597922600,0.767922607421875,4.3704023361206055,0.6084942817687988,-2.6407885551452637
1731409968607727000,0.77772705078125,4.802643299102783,0.016477108001708984,-2.3515758514404297
1731409968617532700,0.78753271484375,5.350986957550049,-0.6419124603271484,-2.200860023498535
1731409968627339000,0.797339111328125,5.607189178466797,-0.7932424545288086,-2.214401960372925
1731409968637144600,0.80714453125,5.3820343017578125,-0.9070262908935547,-2.127307176589966
1731409968646949000,0.81694921875,5.126591205596924,-1.4115328788757324,-1.9829292297363281
1731409968656754700,0.826754638671875,5.14481782913208,-2.158778667449951,-1.7335822582244873
1731409968666561000,0.83656103515625,5.362698554992676,-2.843197822570801,-1.267632246017456
1731409968676366600,0.84636669921875,5.674709320068359,-3.4123029708862305,-0.6992940902709961
1731409968686171400,0.85617138671875,5.671197891235352,-3.376176357269287,0.11367321014404297
1731409968695976700,0.865976806640625,5.0590901374816895,-2.952558994293213,0.9520609378814697
1731409968705783300,0.875783203125,3.7921013832092285,-2.6623988151550293,1.5161147117614746
1731409968715588600,0.885588623046875,2.736299991607666,-2.8775811195373535,1.525001049041748
1731409968725393400,0.895393310546875,2.144462823867798,-3.330789089202881,1.1773037910461426
1731409968735199000,0.905198974609375,1.4469127655029297,-3.70344877243042,0.7742204666137695
1731409968745005300,0.91500537109375,0.500368595123291,-3.8901143074035645,0.5763702392578125
1731409968754810600,0.924810546875,-0.48723673820495605,-3.685840606689453,0.3756227493286133
1731409968764615400,0.934615478515625,-1.6477947235107422,-3.23258113861084,0.38254261016845703
1731409968774421000,0.9444208984375,-2.310272216796875,-3.319032669067383,0.681269645690918
1731409968784227300,0.954227294921875,-2.0214195251464844,-3.7310972213745117,0.6541461944580078
1731409968794032600,0.96403271484375,-1.8132269382476807,-4.284505367279053,0.3653440475463867
1731409968803837400,0.97383740234375,-1.4921348094940186,-4.89918851852417,-0.11112737655639648
1731409968813643000,0.98364306640625,-0.8391374945640564,-5.162182807922363,-0.7239558696746826
1731409968823449300,0.993449462890625,-0.32013779878616333,-5.259570121765137,-0.9833641052246094
1731409968833254700,1.003254638671875,0.29849353432655334,-5.440319538116455,-0.7617671489715576
1731409968843059500,1.0130595703125,1.512056827545166,-5.401340007781982,-0.402388334274292
1731409968852865000,1.022864990234375,2.781733989715576,-5.44849157333374,0.08617687225341797
1731409968862671400,1.03267138671875,3.886420726776123,-5.706789970397949,0.3342561721801758
1731409968872476700,1.0424765625,5.337030410766602,-6.211970329284668,0.706026554107666
1731409968882281500,1.052281494140625,6.966440200805664,-6.715703010559082,1.5337443351745605
1731409968892087000,1.062087158203125,7.781186580657959,-6.748651027679443,3.059861660003662
1731409968901893400,1.071893310546875,7.683514595031738,-6.4991936683654785,4.890082836151123
1731409968911699000,1.081698974609375,7.124232292175293,-6.155001163482666,6.4145917892456055
1731409968921503500,1.09150341796875,6.165175437927246,-5.403866291046143,7.592522621154785
1731409968931309000,1.10130908203125,4.689456462860107,-4.366786956787109,8.187602996826172
1731409968941115400,1.111115478515625,3.3436522483825684,-4.336285591125488,8.176981925964355
1731409968950921000,1.1209208984375,-14.691333770751953,-4.9479827880859375,7.2411627769470215
1731409968960725800,1.130725830078125,-35.82903289794922,7.53108024597168,-2.25907564163208
1731409968970531000,1.140531005859375,-0.10063004493713379,-7.370384693145752,-2.4627525806427
1731409968980337400,1.15033740234375,-13.33685302734375,-6.611881256103516,-2.0744917392730713
1731409968990143000,1.16014306640625,-4.012650966644287,-3.158322334289551,-1.2450623512268066
1731409968999947800,1.16994775390625,-5.677577495574951,-1.3518929481506348,1.0874629020690918
1731409969009753000,1.179753173828125,-5.665291786193848,-0.734703540802002,1.4052677154541016
1731409969019559700,1.1895595703125,-3.99590802192688,-0.35001564025878906,1.2990365028381348
1731409969029365000,1.199364990234375,-3.632164239883423,0.04810905456542969,1.3759450912475586
1731409969039169800,1.209169677734375,-3.9586596488952637,0.741919994354248,1.2782597541809082
1731409969048975400,1.218975341796875,-4.881865501403809,1.0062551498413086,1.256361484527588
1731409969058781700,1.22878173828125,-6.070001602172852,0.7271628379821777,1.4380569458007812
1731409969068587000,1.2385869140625,-6.646395683288574,0.7446637153625488,1.1578574180603027
1731409969078391800,1.248391845703125,-7.166421890258789,0.2657146453857422,0.7959880828857422
1731409969088197400,1.258197265625,-7.625862121582031,-0.14252328872680664,0.4234476089477539
1731409969098003700,1.268003662109375,-7.896486282348633,-0.4050869941711426,0.11334800720214844
1731409969107809000,1.27780908203125,-7.564945220947266,-0.6669154167175293,-0.15830564498901367
1731409969117613800,1.28761376953125,-6.667850017547607,-0.9079198837280273,-0.3560066223144531
1731409969127419400,1.29741943359375,-5.50017786026001,-1.028282642364502,-0.30752038955688477
1731409969137225700,1.307225830078125,-3.893688440322876,-1.2552123069763184,-0.03231668472290039
1731409969147031300,1.31703125,-1.8137810230255127,-1.2605013847351074,0.33385753631591797
1731409969156835800,1.3268359375,0.0893864631652832,-1.0617990493774414,0.6237697601318359
1731409969166641400,1.336641357421875,1.5789341926574707,-0.764643669128418,0.7887821197509766
1731409969176447700,1.34644775390625,2.820812463760376,-0.5103960037231445,0.9395265579223633
1731409969186253300,1.35625341796875,4.140852928161621,-0.28029823303222656,1.1511998176574707
1731409969196058000,1.36605810546875,5.361901760101318,-0.09960794448852539,1.3675212860107422
1731409969205863400,1.375863525390625,6.432547569274902,-0.048465728759765625,1.6587553024291992
1731409969215669800,1.385669677734375,7.49993896484375,-0.13892745971679688,1.8040385246276855
1731409969225475300,1.395475341796875,8.391158103942871,-0.3953571319580078,1.6035513877868652
1731409969235280100,1.405280029296875,8.990455627441406,-0.7200980186462402,1.213912010192871
1731409969245085400,1.41508544921875,9.427963256835938,-1.0043210983276367,0.8335094451904297
1731409969254892000,1.42489208984375,9.811394691467285,-1.3011512756347656,0.43827199935913086
1731409969264697300,1.434697265625,9.893280982971191,-1.5520391464233398,-0.02405691146850586
1731409969274502100,1.444502197265625,9.747058868408203,-1.6640071868896484,-0.4267134666442871
1731409969284307700,1.4543076171875,9.43237590789795,-1.629255771636963,-0.7167501449584961
1731409969294114000,1.464114013671875,8.851532936096191,-1.5144109725952148,-0.9361913204193115
1731409969303919400,1.47391943359375,8.162887573242188,-1.5398378372192383,-1.015841007232666
1731409969313724200,1.48372412109375,7.46224308013916,-1.6449122428894043,-1.079115390777588
1731409969323529700,1.49352978515625,6.664191246032715,-1.756833553314209,-1.0189979076385498
1731409969333336000,1.503336181640625,5.839075565338135,-1.8586344718933105,-0.7276034355163574
1731409969343141600,1.5131416015625,5.251143455505371,-1.9240350723266602,-0.23458528518676758
1731409969352946200,1.5229462890625,4.9179158210754395,-1.887021541595459,0.46120309829711914
1731409969362751700,1.532751708984375,4.677960395812988,-1.558434009552002,1.3400211334228516
1731409969372558000,1.54255810546875,4.536181449890137,-1.1696758270263672,2.0700583457946777
1731409969382363600,1.55236376953125,4.507763862609863,-1.0575261116027832,2.416271209716797
1731409969392168400,1.56216845703125,4.018794059753418,-1.1792945861816406,2.444761276245117
1731409969401973800,1.571973876953125,3.107006072998047,-1.460838794708252,2.4262003898620605
1731409969411780400,1.5817802734375,2.0283608436584473,-1.9239497184753418,2.2315940856933594
1731409969421585700,1.591585693359375,0.8292124271392822,-2.562215805053711,1.9762630462646484
1731409969431390500,1.601390380859375,-0.6994812488555908,-2.77994441986084,2.2143187522888184
1731409969441196000,1.611196044921875,-58.43598556518555,0.5021719932556152,2.3222670555114746
1731409969451002400,1.62100244140625,-12.405338287353516,3.231719970703125,-2.441213846206665
1731409969460807700,1.6308076171875,-6.774348258972168,-3.2699532508850098,2.3299880027770996
1731409969470612500,1.640612548828125,-4.432121276855469,-0.3732767105102539,1.830582618713379
1731409969480418000,1.65041796875,-6.242945671081543,2.0416488647460938,1.5402283668518066
1731409969490224400,1.660224365234375,-8.064201354980469,0.8852934837341309,1.2947196960449219
1731409969500030000,1.670030029296875,-7.193068981170654,0.5520706176757812,0.7021369934082031
1731409969509834500,1.67983447265625,-5.899831771850586,0.03959798812866211,0.432861328125
1731409969519640000,1.68964013671875,-4.786756992340088,-0.3467106819152832,0.9032731056213379
1731409969529446400,1.6994462890625,-4.310227394104004,-0.2519707679748535,1.6155591011047363
1731409969539252000,1.709251953125,-4.574057579040527,0.14865684509277344,1.9851136207580566
1731409969549056500,1.719056396484375,-5.197003364562988,0.20122194290161133,1.9212241172790527
1731409969558862000,1.728862060546875,-5.241220474243164,-0.0823817253112793,1.4746694564819336
1731409969568668700,1.738668701171875,-4.66190242767334,-0.6110196113586426,0.9249434471130371
1731409969578474000,1.748473876953125,-3.793283224105835,-1.162034511566162,0.37770748138427734
1731409969588278800,1.75827880859375,-2.433695077896118,-1.5664339065551758,-0.012302875518798828
1731409969598084400,1.76808447265625,-0.7752320766448975,-1.7299561500549316,-0.17720651626586914
1731409969607890700,1.777890625,0.8276894092559814,-1.5857367515563965,-0.19336271286010742
1731409969617696000,1.787696044921875,2.151427745819092,-1.3346772193908691,-0.18927478790283203
1731409969627500800,1.797500732421875,3.3855276107788086,-1.078559398651123,-0.15874862670898438
1731409969637306400,1.807306396484375,4.542120456695557,-0.8909902572631836,-0.26395273208618164
1731409969647112700,1.81711279296875,5.443976402282715,-0.8914709091186523,-0.5331661701202393
1731409969656918300,1.826918212890625,6.2552080154418945,-0.9244089126586914,-0.7937345504760742
1731409969666722800,1.836722900390625,6.841339111328125,-0.8530316352844238,-0.8095290660858154
1731409969676528400,1.8465283203125,7.119946002960205,-0.6600642204284668,-0.699188232421875
1731409969686334700,1.856334716796875,7.600162029266357,-0.649592399597168,-0.46410107612609863
1731409969696140300,1.866140380859375,8.497775077819824,-0.7707004547119141,-0.20358610153198242
1731409969705945000,1.875945068359375,9.187264442443848,-0.8614563941955566,0.05088376998901367
1731409969715750700,1.885750732421875,9.644535064697266,-1.0103797912597656,0.2881932258605957
1731409969725557000,1.895556884765625,9.98058032989502,-1.2481803894042969,0.5002946853637695
1731409969735362300,1.9053623046875,10.007434844970703,-1.3222689628601074,0.6471157073974609
1731409969745167000,1.9151669921875,10.114755630493164,-1.4997692108154297,0.7029085159301758
1731409969754972700,1.92497265625,10.467069625854492,-1.8711175918579102,0.7837448120117188
1731409969764779000,1.934779052734375,10.8866548538208,-2.280756950378418,0.8872785568237305
1731409969774584600,1.94458447265625,11.305846214294434,-2.8197340965270996,1.1988558769226074
1731409969784389000,1.95438916015625,11.652259826660156,-3.1417789459228516,1.7950315475463867
1731409969794194700,1.964194580078125,11.575338363647461,-3.3707275390625,2.4020843505859375
1731409969804001000,1.9740009765625,11.542232513427734,-3.989027738571167,2.7751026153564453
1731409969813806600,1.983806640625,11.416172981262207,-4.846487045288086,2.860621929168701
1731409969823611400,1.993611328125,10.749247550964355,-5.643378257751465,3.024305820465088
1731409969833417000,2.0034169921875,9.699560165405273,-6.234234809875488,3.4155149459838867
1731409969843223300,2.013223388671875,8.423784255981445,-6.798593997955322,3.8186306953430176
1731409969853028600,2.023028564453125,-15.311919212341309,-6.673523902893066,5.250790596008301
1731409969862833400,2.03283349609375,-8.146652221679688,13.21880054473877,0.635922908782959
1731409969872639000,2.042638916015625,-1.571807622909546,-11.48649787902832,2.851818561553955
1731409969882445300,2.0524453125,-7.592292308807373,-3.306617259979248,6.837294578552246
1731409969892251000,2.0622509765625,-7.425482749938965,0.15714168548583984,3.9870376586914062
1731409969902055700,2.0720556640625,-4.542590141296387,0.1519489288330078,2.5810389518737793
1731409969911861000,2.081861083984375,-2.0933949947357178,-1.0202364921569824,0.2406473159790039
1731409969921667600,2.09166748046875,-0.1547696590423584,-0.49222898483276367,-0.864933967590332
1731409969931473000,2.101472900390625,-0.10089993476867676,0.8439846038818359,-0.07599163055419922
1731409969941277700,2.111277587890625,-0.011878252029418945,1.8695869445800781,1.5080137252807617
1731409969951083300,2.121083251953125,-0.4220442771911621,2.1253161430358887,2.0841784477233887
1731409969960889600,2.1308896484375,-1.3096723556518555,1.2840614318847656,1.420823574066162
1731409969970695200,2.140695068359375,-1.8556342124938965,-0.019589900970458984,0.23866558074951172
1731409969980499700,2.150499755859375,-1.9498522281646729,-0.9042468070983887,-0.5439372062683105
1731409969990305300,2.16030517578125,-1.7759287357330322,-0.9151639938354492,-0.2743382453918457
1731409970000111600,2.170111572265625,-1.445324420928955,-0.5574860572814941,0.33468151092529297
1731409970009917200,2.179917236328125,-1.1146199703216553,-0.2972579002380371,0.5780506134033203
1731409970019722000,2.189721923828125,-0.9251439571380615,-0.2612271308898926,0.48363637924194336
1731409970029527600,2.199527587890625,-0.7294192314147949,-0.34806156158447266,0.33600282669067383
1731409970039334000,2.209333984375,-0.7079176902770996,-0.47818946838378906,0.2377171516418457
1731409970049139500,2.219139404296875,-0.757333517074585,-0.4432792663574219,0.1718301773071289
1731409970058944000,2.228944091796875,-0.8617274761199951,-0.1674799919128418,0.2559499740600586
1731409970068749600,2.23874951171875,-1.070171594619751,0.07399177551269531,0.49775075912475586
1731409970078556000,2.248555908203125,-1.2091450691223145,0.16686344146728516,0.6825737953186035
1731409970088361500,2.258361572265625,-1.2918689250946045,0.12840938568115234,0.7484240531921387
1731409970098166300,2.268166259765625,-1.3089141845703125,0.04714488983154297,0.7668447494506836
1731409970107971800,2.277971923828125,-1.2935941219329834,0.12071847915649414,0.709174633026123
1731409970117778200,2.287778076171875,-1.2963237762451172,0.2073965072631836,0.6072087287902832
1731409970127583700,2.297583740234375,-1.3713788986206055,0.2173023223876953,0.46751976013183594
1731409970137388300,2.30738818359375,-1.538587212562561,0.30125856399536133,0.37374401092529297
1731409970147193900,2.31719384765625,-1.742815613746643,0.39915990829467773,0.33147192001342773
1731409970157000200,2.327000244140625,-1.8940701484680176,0.4154067039489746,0.2935967445373535
1731409970166805800,2.3368056640625,-1.9398164749145508,0.3955240249633789,0.1379685401916504
1731409970176610600,2.346610595703125,-1.8352172374725342,0.37798213958740234,-0.09303712844848633
1731409970186416000,2.356416015625,-1.6872695684432983,0.44147205352783203,-0.23755264282226562
1731409970196222500,2.366222412109375,-1.6216846704483032,0.47585248947143555,-0.23670721054077148
1731409970206028000,2.376028076171875,-1.5223286151885986,0.46465063095092773,-0.0987238883972168
1731409970215832600,2.38583251953125,-1.480006217956543,0.44813108444213867,0.07471418380737305
1731409970225638100,2.39563818359375,-1.5200248956680298,0.3668789863586426,0.16271209716796875
1731409970235444500,2.405444580078125,-1.5404400825500488,0.3218536376953125,0.13916492462158203
1731409970245250000,2.41525,-1.5736119747161865,0.33678627014160156,0.06363487243652344
1731409970255054800,2.425054931640625,-1.4990630149841309,0.24014997482299805,-0.04309511184692383
1731409970264860400,2.4348603515625,-1.3272141218185425,0.15224981307983398,-0.16997528076171875
1731409970274666800,2.444666748046875,-1.1460256576538086,0.12072324752807617,-0.1784358024597168
1731409970284472300,2.454472412109375,-1.0070552825927734,0.051952362060546875,-0.1372814178466797
1731409970294276900,2.46427685546875,-1.045015811920166,0.0031280517578125,-0.2059016227722168
1731409970304082700,2.474082763671875,-1.0519300699234009,-0.04250621795654297,-0.20750761032104492
1731409970313889000,2.483888916015625,-1.0450351238250732,-0.09400129318237305,-0.21233463287353516
1731409970323694300,2.4936943359375,-1.1307626962661743,-0.08676815032958984,-0.19648981094360352
1731409970333499100,2.5034990234375,-1.1977405548095703,-0.03059244155883789,-0.11193180084228516
1731409970343304700,2.5133046875,-1.1999733448028564,0.07198381423950195,-0.04218149185180664
1731409970353111000,2.523111083984375,-1.1472573280334473,0.19673824310302734,0.044101715087890625
1731409970362916600,2.53291650390625,-1.0846412181854248,0.3596334457397461,0.1709604263305664
1731409970372721200,2.54272119140625,-1.1196030378341675,0.6264195442199707,0.24080705642700195
1731409970382527000,2.55252685546875,-1.3109146356582642,0.7768959999084473,0.2680835723876953
1731409970392333300,2.562333251953125,-1.509901523590088,0.858912467956543,0.2820606231689453
1731409970402138600,2.572138671875,-1.6600580215454102,0.934685230255127,0.2953624725341797
1731409970411943400,2.581943359375,-1.7119120359420776,0.9707498550415039,0.33031606674194336
1731409970421749000,2.5917490234375,-1.7393678426742554,1.02215576171875,0.3225879669189453
1731409970431555300,2.601555419921875,-1.6933925151824951,1.0054254531860352,0.25290632247924805
1731409970441361000,2.61136083984375,-1.5049738883972168,0.854466438293457,0.19972896575927734
1731409970451165700,2.621165771484375,-1.2927539348602295,0.6179590225219727,0.1222834587097168
1731409970460971300,2.63097119140625,-1.1455371379852295,0.45658397674560547,-0.05419588088989258
1731409970470777600,2.640777587890625,-1.0379126071929932,0.2633981704711914,-0.2066364288330078
1731409970480583200,2.650583251953125,-0.9650871753692627,0.052546024322509766,-0.23516368865966797
1731409970490387700,2.6603876953125,-0.9034178256988525,-0.03625345230102539,-0.20542621612548828
1731409970500193300,2.670193359375,-0.8457832336425781,-0.12072086334228516,-0.16745233535766602
1731409970509999900,2.679999755859375,-0.7849853038787842,-0.2058277130126953,-0.1893787384033203
1731409970519805200,2.68980517578125,-0.7988882064819336,-0.2628817558288574,-0.28502845764160156
1731409970529610000,2.69960986328125,-0.8590614795684814,-0.25217723846435547,-0.48214149475097656
1731409970539415600,2.70941552734375,-0.9307715892791748,-0.18918895721435547,-0.6216344833374023
1731409970549222000,2.719221923828125,-0.9749832153320312,-0.13154077529907227,-0.6176114082336426
1731409970559027500,2.72902734375,-1.1209216117858887,-0.03236961364746094,-0.5164937973022461
1731409970568832300,2.738832275390625,-1.1765451431274414,0.10019207000732422,-0.37729883193969727
1731409970578637600,2.748637451171875,-1.1378798484802246,0.09165143966674805,-0.2266101837158203
1731409970588444200,2.758444091796875,-1.0129132270812988,0.03875112533569336,-0.07877302169799805
1731409970598249700,2.768249755859375,-0.8140275478363037,0.06666707992553711,0.06833505630493164
1731409970608054300,2.77805419921875,-0.702054500579834,0.14987564086914062,0.15113353729248047
1731409970617859800,2.78785986328125,-0.7270312309265137,0.17185258865356445,0.13116455078125
1731409970627666200,2.797666259765625,-0.729423999786377,0.13883686065673828,0.033864498138427734
1731409970637471700,2.8074716796875,-0.7768349647521973,0.18608570098876953,-0.009691238403320312
1731409970647276500,2.817276611328125,-0.866391658782959,0.17553091049194336,0.028018474578857422
1731409970657082000,2.82708203125,-0.9142236709594727,0.07757806777954102,0.1059417724609375
1731409970666888400,2.836888427734375,-0.7771613597869873,-0.022010326385498047,0.2289266586303711
1731409970676694000,2.846694091796875,-0.589888334274292,-0.13201045989990234,0.1152796745300293
1731409970686498800,2.856498779296875,-0.5240819454193115,-0.18364715576171875,-0.029787540435791016
1731409970696304000,2.86630419921875,-0.5561356544494629,-0.0722665786743164,-0.13334178924560547
1731409970706110700,2.87611083984375,-0.7336695194244385,0.07869911193847656,-0.19859838485717773
1731409970715916300,2.885916259765625,-1.014784336090088,0.19764041900634766,-0.14359807968139648
1731409970725720800,2.895720947265625,-1.1334609985351562,0.35823631286621094,0.009809494018554688
1731409970735526400,2.9055263671875,-0.9846296310424805,0.487271785736084,0.1438288688659668
1731409970745332700,2.915332763671875,-0.5484635829925537,0.501467227935791,0.12482738494873047
1731409970755138300,2.92513818359375,-0.23715806007385254,0.2995023727416992,-0.026401042938232422
1731409970764943000,2.934943115234375,-0.30475449562072754,0.08929109573364258,-0.25842857360839844
1731409970774748700,2.944748779296875,0.6291439533233643,0.12146568298339844,-0.2749462127685547
1731409970784555000,2.954554931640625,1.803892731666565,0.4045381546020508,-0.030025959014892578
1731409970794360600,2.964360595703125,1.8262996673583984,0.936065673828125,0.3258194923400879
1731409970804165400,2.974165283203125,0.8514049053192139,1.4405584335327148,0.5052733421325684
1731409970813971000,2.983970947265625,-0.4837343692779541,1.644810676574707,0.43662214279174805
1731409970823777300,2.99377734375,-1.1003448963165283,1.4515166282653809,0.14290237426757812
1731409970833582800,3.003582763671875,-1.282109260559082,1.143376350402832,-0.04134321212768555
1731409970843387400,3.013387451171875,-1.6244728565216064,0.600581169128418,-0.06344747543334961
1731409970853193200,3.023193115234375,-1.9332709312438965,0.027776241302490234,0.06083488464355469
1731409970862999600,3.03299951171875,-1.6338021755218506,-0.27324771881103516,0.23599576950073242
1731409970872804900,3.042804931640625,-1.152327537536621,-0.3786497116088867,0.37546253204345703
1731409970882609700,3.052609619140625,-0.7754852771759033,-0.44152355194091797,0.5126523971557617
1731409970892415200,3.062415283203125,-0.6292731761932373,-0.7219324111938477,0.6637420654296875
1731409970902221600,3.0722216796875,-1.1828203201293945,-0.28784704208374023,0.7788143157958984
1731409970912027100,3.082027099609375,-1.504509449005127,0.007179737091064453,1.1729192733764648
1731409970921832000,3.09183203125,-2.0614681243896484,0.4486064910888672,1.4558687210083008
1731409970931637500,3.101637451171875,-1.8190350532531738,0.644625186920166,1.5277814865112305
1731409970941443800,3.11144384765625,-1.240727186203003,0.4800715446472168,1.242751121520996
1731409970951249400,3.12124951171875,-0.992495059967041,0.05933427810668945,0.7266941070556641
1731409970961054200,3.13105419921875,-1.1963143348693848,-0.4804220199584961,0.21885204315185547
1731409970970859500,3.140859619140625,-1.2963252067565918,-0.9832992553710938,-0.17267727851867676
1731409970980666000,3.150666015625,-0.8784117698669434,-1.3361339569091797,-0.5574634075164795
1731409970990471400,3.160471435546875,-0.13747262954711914,-1.477241039276123,-0.856325626373291
1731409971000276200,3.170276123046875,0.5608968734741211,-1.4858193397521973,-1.1044199466705322
1731409971010081800,3.180081787109375,0.7361600399017334,-1.008692741394043,-1.3026697635650635
1731409971019888000,3.18988818359375,-0.0006480216979980469,-1.373955249786377,-1.4088129997253418
1731409971029693700,3.199693603515625,-0.3585038185119629,-1.2262458801269531,-1.4234356880187988
1731409971039498500,3.20949853515625,-0.2655329704284668,-1.114654541015625,-1.3328640460968018
1731409971049304000,3.219303955078125,0.21550989151000977,-0.9336986541748047,-1.2235875129699707
1731409971059110400,3.2291103515625,0.5056662559509277,-0.7780871391296387,-1.3780360221862793
1731409971068916000,3.238916015625,-0.27951526641845703,-0.16477680206298828,-2.172525405883789
1731409971078720800,3.248720703125,-1.397071361541748,0.22979164123535156,-3.0765676498413086
1731409971088526300,3.2585263671875,-1.0242371559143066,-0.47477102279663086,-2.3960909843444824
1731409971098332700,3.268332763671875,0.4667792320251465,-0.8817262649536133,-0.7146003246307373
1731409971108138200,3.27813818359375,1.4189064502716064,-0.5091085433959961,0.22104978561401367
1731409971117942800,3.28794287109375,1.2341742515563965,-0.14036130905151367,0.26950502395629883
1731409971127748600,3.29774853515625,1.0276944637298584,-0.4831371307373047,0.24641942977905273
1731409971137555000,3.307554931640625,0.6638288497924805,-0.299835205078125,0.015034675598144531
1731409971147360300,3.3173603515625,-0.7990665435791016,0.24385881423950195,-0.3801436424255371
1731409971157165000,3.3271650390625,-1.8606162071228027,0.7872781753540039,-0.23290681838989258
1731409971166970600,3.336970703125,-1.752431869506836,1.4389395713806152,0.3362388610839844
1731409971176777000,3.34677685546875,-1.0467653274536133,1.534675121307373,1.2743372917175293
1731409971186582500,3.35658251953125,-0.1886148452758789,1.2596282958984375,1.9084067344665527
1731409971196387300,3.36638720703125,0.12716341018676758,1.221388339996338,1.9517626762390137
1731409971206193000,3.37619287109375,-0.11284351348876953,1.3481955528259277,1.467935562133789
1731409971215999200,3.385999267578125,-0.6742424964904785,1.147902488708496,0.8880958557128906
1731409971225804800,3.3958046875,-0.9196605682373047,0.4890708923339844,0.30309629440307617
1731409971235609600,3.405609619140625,-0.6436939239501953,-0.23194503784179688,-0.17624950408935547
1731409971245415200,3.415415283203125,-0.5855622291564941,-0.6918120384216309,-0.24568510055541992
1731409971255221500,3.425221435546875,-0.8998551368713379,-0.6168460845947266,-0.10760068893432617
1731409971265027000,3.435027099609375,-0.7333927154541016,-0.3845386505126953,0.10597848892211914
1731409971274831600,3.44483154296875,-0.6235637664794922,-0.2000141143798828,0.2196202278137207
1731409971284637200,3.45463720703125,-0.822181224822998,-0.17294025421142578,0.2131180763244629
1731409971294443800,3.46444384765625,-1.4232001304626465,-0.12722396850585938,-0.09410429000854492
1731409971304249000,3.4742490234375,-1.9984970092773438,-0.12345123291015625,-0.4793245792388916
1731409971314054000,3.484053955078125,-1.6566896438598633,-0.27518701553344727,-0.8095381259918213
1731409971323859500,3.493859375,-0.8590817451477051,-0.5707058906555176,-0.619713544845581
1731409971333665800,3.503665771484375,-0.9298892021179199,-0.3531050682067871,-0.19239330291748047
1731409971343471400,3.513471435546875,-1.0929269790649414,-0.056120872497558594,0.04103279113769531
1731409971353276200,3.523276123046875,-1.3284144401550293,-0.15064382553100586,0.07655858993530273
1731409971363081700,3.533081787109375,-1.0975079536437988,0.28094959259033203,0.1463780403137207
1731409971372888000,3.54288818359375,-1.0821881294250488,0.5257844924926758,0.34974098205566406
1731409971382693600,3.552693603515625,-0.8195323944091797,0.41948747634887695,-0.1156611442565918
1731409971392498400,3.56249853515625,0.13974618911743164,-0.09971427917480469,-0.7385387420654297
1731409971402304000,3.572303955078125,2.6052298545837402,-1.63433837890625,-1.2897663116455078
1731409971412110300,3.5821103515625,-4.081604957580566,0.5918850898742676,0.18782472610473633
1731409971421916000,3.591916015625,-3.046916961669922,-1.374870777130127,0.2766556739807129
1731409971431720400,3.601720458984375,1.0730929374694824,-1.6357321739196777,-0.05127143859863281
1731409971441526300,3.6115263671875,2.3552486896514893,2.2974905967712402,2.1263833045959473
1731409971451332600,3.62133251953125,-1.4189200401306152,0.9768590927124023,1.9174556732177734
1731409971461138000,3.631137939453125,-2.1220297813415527,-0.46379899978637695,0.02954244613647461
1731409971470942700,3.640942626953125,-0.850102424621582,0.547734260559082,0.10147666931152344
1731409971480748300,3.650748291015625,-0.7109980583190918,0.7893424034118652,0.16042804718017578
1731409971490554600,3.6605546875,-0.8902134895324707,0.08198165893554688,-0.01843881607055664
1731409971500360200,3.670360107421875,-0.3997836112976074,-0.0009827613830566406,0.03789854049682617
1731409971510165000,3.6801650390625,-0.3782954216003418,0.06824016571044922,0.08509111404418945
1731409971519970600,3.689970458984375,-0.6869759559631348,0.012859344482421875,0.03147697448730469
1731409971529777000,3.69977685546875,-0.5837936401367188,0.02551889419555664,0.06571578979492188
1731409971539582500,3.70958251953125,-0.1626424789428711,-0.0012011528015136719,0.1343364715576172
1731409971549387300,3.71938720703125,-0.0715484619140625,0.007034778594970703,-0.02984476089477539
1731409971559192800,3.72919287109375,-0.42520809173583984,-0.35191822052001953,-0.2637817859649658
1731409971568999200,3.738999267578125,-0.5908699035644531,-0.17911863327026367,0.01624441146850586
1731409971578804700,3.7488046875,-0.19791316986083984,-0.06269550323486328,0.23340129852294922
1731409971588609300,3.758609375,-0.3005352020263672,-0.07273530960083008,0.22694730758666992
1731409971598415000,3.7684150390625,-0.4567418098449707,-0.22448492050170898,-0.004868030548095703
1731409971608221400,3.778221435546875,-0.5470247268676758,-0.3691391944885254,-0.25435853004455566
1731409971618027000,3.788027099609375,-0.593963623046875,-0.44039487838745117,-0.2855074405670166
1731409971627831600,3.79783154296875,-0.5816717147827148,-0.4416031837463379,-0.14879608154296875
1731409971637637000,3.80763720703125,-0.6108713150024414,-0.3520216941833496,-0.07816171646118164
1731409971647443500,3.817443359375,-0.6340889930725098,-0.26579713821411133,-0.04884767532348633
1731409971657249000,3.8272490234375,-0.6490955352783203,-0.15442895889282227,-0.05829429626464844
1731409971667053800,3.8370537109375,-0.6573619842529297,-0.07987356185913086,-0.07915639877319336
1731409971676859400,3.846859375,-0.5623202323913574,-0.0007867813110351562,-0.07516765594482422
1731409971686665700,3.856665771484375,-0.5932931900024414,0.025431156158447266,0.011281490325927734
1731409971696471300,3.86647119140625,-0.7264065742492676,0.015076637268066406,0.04905509948730469
1731409971706276000,3.876276123046875,-0.6433596611022949,-0.040685176849365234,-0.03372907638549805
1731409971716081700,3.88608154296875,-0.5258951187133789,-0.050477027893066406,-0.08912515640258789
1731409971725888000,3.895887939453125,-0.43854236602783203,0.03821754455566406,-0.1483612060546875
1731409971735693600,3.905693603515625,-0.5188255310058594,0.08604049682617188,-0.18621206283569336
1731409971745498400,3.915498291015625,-0.618351936340332,0.06877946853637695,-0.15202665328979492
1731409971755304000,3.925303955078125,-0.6055054664611816,0.12024402618408203,-0.009730815887451172
1731409971765110300,3.9351103515625,-0.6405529975891113,0.11090469360351562,0.128814697265625
1731409971774915600,3.94491552734375,-0.631751537322998,0.04648256301879883,0.1393899917602539
1731409971784720400,3.954720458984375,-0.620089054107666,0.013119697570800781,0.05771350860595703
1731409971794526000,3.96452587890625,-0.6063623428344727,-0.0012545585632324219,-0.045313358306884766
1731409971804332500,3.97433251953125,-0.550201416015625,-0.039656639099121094,-0.11026239395141602
1731409971814137900,3.984137939453125,-0.45586633682250977,-0.05370903015136719,-0.15159225463867188
1731409971823942700,3.993942626953125,-0.4402947425842285,-0.014984607696533203,-0.14737796783447266
1731409971833748200,4.003748291015625,-0.45356225967407227,-0.0003886222839355469,-0.13595294952392578
1731409971843554600,4.013554443359375,-0.4835538864135742,-0.036028385162353516,-0.2009432315826416
1731409971853360000,4.023360107421875,-0.49422740936279297,-0.09534311294555664,-0.22516369819641113
1731409971863165000,4.0331650390625,-0.4571242332458496,-0.11618185043334961,-0.20891833305358887
1731409971872970500,4.042970458984375,-0.4487142562866211,-0.10363578796386719,-0.1614232063293457
1731409971882776800,4.05277685546875,-0.4619903564453125,-0.10079097747802734,-0.1594557762145996
1731409971892582400,4.06258251953125,-0.5310654640197754,-0.09319686889648438,-0.177778959274292
1731409971902387200,4.07238720703125,-0.6366744041442871,-0.04511117935180664,-0.17561078071594238
1731409971912192800,4.08219287109375,-0.6321806907653809,0.010034561157226562,-0.11378288269042969
1731409971921999000,4.0919990234375,-0.6318955421447754,0.0006184577941894531,-0.049016475677490234
1731409971931804700,4.1018046875,-0.6387057304382324,-0.04173612594604492,-0.05213356018066406
1731409971941609500,4.111609375,-0.663909912109375,-0.07891321182250977,-0.07556438446044922
1731409971951414800,4.121414794921875,-0.5866808891296387,-0.1834716796875,-0.14034771919250488
1731409971961221400,4.131221435546875,-0.48337650299072266,-0.28035402297973633,-0.2087266445159912
1731409971971026700,4.141026611328125,-0.4510326385498047,-0.30364131927490234,-0.2856605052947998
1731409971980831500,4.15083154296875,-0.4443840980529785,-0.26924943923950195,-0.28858160972595215
1731409971990637000,4.160636962890625,-0.42612552642822266,-0.2752251625061035,-0.2895228862762451
1731409972000443400,4.170443359375,-0.3849496841430664,-0.3046302795410156,-0.2673618793487549
1731409972010249000,4.1802490234375,-0.3614516258239746,-0.25853490829467773,-0.16570425033569336
1731409972020053800,4.1900537109375,-0.3626556396484375,-0.18535804748535156,-0.04261350631713867
1731409972029859300,4.199859375,-0.44262266159057617,-0.13984918594360352,-0.03520488739013672
1731409972039665700,4.209665771484375,-0.45854902267456055,-0.1213064193725586,-0.0898141860961914
1731409972049471200,4.21947119140625,-0.4226346015930176,-0.07956600189208984,-0.07549333572387695
1731409972059276000,4.229276123046875,-0.30753135681152344,-0.005316257476806641,-0.09747886657714844
1731409972069081600,4.23908154296875,-0.37125110626220703,0.02305746078491211,-0.10559821128845215
1731409972078888000,4.248887939453125,-0.567042350769043,0.0810704231262207,-0.13343358039855957
1731409972088693500,4.258693603515625,-0.6361489295959473,0.16043472290039062,-0.07360100746154785
1731409972098498300,4.268498291015625,-0.6028666496276855,0.23267602920532227,0.08354473114013672
1731409972108303600,4.2783037109375,-0.5979962348937988,0.19461774826049805,0.0845637321472168
1731409972118110200,4.288110107421875,-0.515019416809082,0.1262059211730957,-0.0472874641418457
1731409972127915800,4.297915771484375,-0.42812585830688477,0.039910316467285156,-0.20167803764343262
1731409972137720300,4.30772021484375,-0.36086511611938477,-0.02392101287841797,-0.3216865062713623
1731409972147526000,4.31752587890625,-0.35027170181274414,-0.07015228271484375,-0.41957569122314453
1731409972157332500,4.32733251953125,-0.3551368713378906,-0.11027383804321289,-0.42568111419677734
1731409972167137800,4.3371376953125,-0.3683185577392578,-0.11390066146850586,-0.40044093132019043
1731409972176942600,4.346942626953125,-0.41611385345458984,-0.11277437210083008,-0.2665722370147705
1731409972186748200,4.356748046875,-0.4888315200805664,-0.07901763916015625,-0.18120145797729492
1731409972196554500,4.366554443359375,-0.5111360549926758,-0.02766704559326172,-0.12936758995056152
1731409972206360000,4.376360107421875,-0.48647356033325195,-0.07905912399291992,-0.11326336860656738
1731409972216164900,4.386164794921875,-0.4203658103942871,-0.1463613510131836,-0.12354493141174316
1731409972225970400,4.395970458984375,-0.34652042388916016,-0.16540050506591797,-0.14162039756774902
1731409972235776800,4.40577685546875,-0.28420591354370117,-0.08548545837402344,-0.13670730590820312
1731409972245582300,4.415582275390625,-0.1858525276184082,-0.03728771209716797,-0.12131953239440918
1731409972255387100,4.42538720703125,-0.08960103988647461,-0.017580509185791016,-0.1242976188659668
1731409972265192400,4.4351923828125,-0.03540802001953125,0.02359771728515625,-0.0629878044128418
1731409972274999000,4.4449990234375,-0.0038208961486816406,0.06221342086791992,0.03809690475463867
1731409972284804600,4.4548046875,0.057509422302246094,0.110015869140625,0.1033334732055664
1731409972294609200,4.464609130859375,0.1483621597290039,0.1529092788696289,0.17578816413879395
1731409972304415000,4.4744150390625,0.24044418334960938,0.2053513526916504,0.22025752067565918
1731409972314221300,4.48422119140625,0.29377317428588867,0.23646259307861328,0.22336983680725098
1731409972324026600,4.494026611328125,0.34914445877075195,0.27255916595458984,0.20942950248718262
1731409972333831400,4.50383154296875,0.41556358337402344,0.28523969650268555,0.13119816780090332
1731409972343637000,4.513636962890625,0.40087223052978516,0.28675079345703125,0.11413264274597168
1731409972353443300,4.523443359375,0.24927711486816406,0.24164485931396484,0.10032844543457031
1731409972363249000,4.533248779296875,0.17745065689086914,0.23305034637451172,0.11359190940856934
1731409972373053700,4.5430537109375,0.08306121826171875,0.2835822105407715,0.18732237815856934
1731409972382859300,4.552859375,0.0232696533203125,0.3308858871459961,0.22939562797546387
1731409972392665600,4.56266552734375,-0.03827524185180664,0.3747892379760742,0.23770546913146973
1731409972402471200,4.57247119140625,-0.11554431915283203,0.3707304000854492,0.16336488723754883
1731409972412276000,4.58227587890625,-0.17722320556640625,0.32921361923217773,0.09500455856323242
1731409972422081500,4.59208154296875,-0.25176143646240234,0.290769100189209,0.02103281021118164
1731409972431888000,4.601887939453125,-0.2684049606323242,0.2644948959350586,-0.07224798202514648
1731409972441693400,4.611693359375,-0.3248305320739746,0.21241188049316406,-0.13517093658447266
1731409972451498000,4.621498046875,-0.2770709991455078,0.1303424835205078,-0.1641380786895752
1731409972461303800,4.6313037109375,-0.18521928787231445,0.08033275604248047,-0.11956048011779785
1731409972471110100,4.641110107421875,-0.1623539924621582,0.08312654495239258,0.005179882049560547
1731409972480915500,4.65091552734375,-0.19080638885498047,0.034104347229003906,0.0395658016204834
1731409972490720300,4.66072021484375,-0.23934459686279297,-0.02362060546875,-0.0032358169555664062
1731409972500525800,4.67052587890625,-0.29894161224365234,-0.026753902435302734,-0.009262561798095703
1731409972510332200,4.680332275390625,-0.31537389755249023,-0.03278017044067383,-0.054486751556396484
1731409972520137700,4.6901376953125,-0.2820315361022949,-0.12601757049560547,-0.07026553153991699
1731409972529942500,4.699942626953125,-0.18278169631958008,-0.18657159805297852,-0.11415600776672363
1731409972539748000,4.709748046875,-0.12706327438354492,-0.22666263580322266,-0.1576685905456543
1731409972549554400,4.719554443359375,-0.08135318756103516,-0.2890019416809082,-0.1916348934173584
1731409972559360000,4.729360107421875,-0.023962020874023438,-0.3658604621887207,-0.2444913387298584
1731409972569164800,4.739164794921875,0.08478021621704102,-0.41907548904418945,-0.2953922748565674
1731409972578970400,4.748970458984375,0.1261296272277832,-0.4208106994628906,-0.28572726249694824
1731409972588776700,4.758776611328125,0.10985898971557617,-0.35589599609375,-0.2262401580810547
1731409972598582300,4.768582275390625,-0.0297088623046875,-0.3060283660888672,-0.1484546661376953
1731409972608387000,4.778386962890625,-0.21552753448486328,-0.24334096908569336,-0.07090568542480469
1731409972618192600,4.788192626953125,-0.39497852325439453,-0.15673112869262695,0.08495235443115234
1731409972627999000,4.7979990234375,-0.5350837707519531,-0.04205656051635742,0.2123408317565918
1731409972637804300,4.80780419921875,-0.6432914733886719,0.03456449508666992,0.23162317276000977
1731409972647609000,4.817609130859375,-0.6253762245178223,0.06458902359008789,0.22036170959472656
1731409972657414700,4.82741455078125,-0.5669903755187988,0.05906105041503906,0.1722569465637207
1731409972667221000,4.837220947265625,-0.49872255325317383,0.02372455596923828,0.15171432495117188
1731409972677026600,4.847026611328125,-0.4158639907836914,-0.043047428131103516,0.08278274536132812
1731409972686831400,4.856831298828125,-0.27173328399658203,-0.07965707778930664,0.03924846649169922
1731409972696637000,4.866636962890625,-0.18587207794189453,-0.08731651306152344,0.030147075653076172
1731409972706443300,4.876443359375,-0.11331605911254883,-0.09514617919921875,0.028620243072509766
1731409972716248800,4.886248779296875,-0.16324138641357422,-0.09551382064819336,0.08007574081420898
1731409972726053600,4.8960537109375,-0.2000441551208496,-0.09331035614013672,0.10045289993286133
1731409972735859200,4.905859130859375,-0.21498727798461914,-0.0652155876159668,0.13936281204223633
1731409972745665500,4.91566552734375,-0.2786102294921875,-0.0469365119934082,0.15233135223388672
1731409972755471000,4.92547119140625,-0.3374800682067871,-0.09524250030517578,0.06069231033325195
1731409972765276000,4.93527587890625,-0.3642568588256836,-0.18568086624145508,-0.04282569885253906
1731409972775081500,4.94508154296875,-0.38068723678588867,-0.18843984603881836,-0.04916524887084961
1731409972784887800,4.9548876953125,-0.32523488998413086,-0.1451582908630371,0.012755870819091797
1731409972794693400,4.964693359375,-0.29599666595458984,-0.10134363174438477,0.07302522659301758
1731409972804498000,4.974497802734375,-0.35657644271850586,-0.09689664840698242,-0.03397941589355469
1731409972814303700,4.9843037109375,-0.3989219665527344,-0.10273981094360352,-0.02002716064453125
1731409972824110000,4.994110107421875,-0.38657140731811523,-0.1111764907836914,0.08351373672485352
1731409972833915400,5.003915283203125,-0.312863826751709,-0.13556432723999023,0.0039539337158203125
1731409972843720200,5.01372021484375,-0.3099193572998047,-0.05792236328125,0.08198833465576172
1731409972853525800,5.02352587890625,-0.31543684005737305,-0.01203775405883789,0.051596641540527344
1731409972863332000,5.03333203125,-0.3313441276550293,0.03544282913208008,0.011693477630615234
1731409972873137700,5.0431376953125,-0.3190488815307617,0.09865331649780273,0.008114814758300781
1731409972882942500,5.0529423828125,-0.24858522415161133,0.036194801330566406,-0.002536773681640625
1731409972892748000,5.062748046875,-0.22447824478149414,-0.04123210906982422,0.040602684020996094
1731409972902554400,5.072554443359375,-0.20659875869750977,-0.09623050689697266,0.11773204803466797
1731409972912360000,5.08235986328125,-0.1858363151550293,-0.09615087509155273,0.18761014938354492
1731409972922164700,5.092164794921875,-0.2457447052001953,-0.08649301528930664,0.2541661262512207
1731409972931970300,5.10197021484375,-0.22017145156860352,0.07787656784057617,0.2667660713195801
1731409972941776600,5.111776611328125,-0.07495641708374023,0.18419885635375977,0.27163076400756836
1731409972951582200,5.121582275390625,-0.14355039596557617,0.11748647689819336,0.2649521827697754
1731409972961387000,5.131386962890625,-0.15758275985717773,0.08031845092773438,0.25298452377319336
1731409972971192600,5.141192626953125,-0.18172693252563477,0.0756072998046875,0.28887176513671875
1731409972980999000,5.1509990234375,-0.19652271270751953,-0.09191513061523438,0.19715404510498047
1731409972990804200,5.16080419921875,-0.0064601898193359375,0.12220382690429688,0.34243011474609375
1731409973000609000,5.170609130859375,-0.005333423614501953,0.266446590423584,0.3991546630859375
1731409973010414600,5.18041455078125,-0.07683658599853516,0.1515202522277832,0.16854190826416016
1731409973020221200,5.19022119140625,-0.0690460205078125,0.09278202056884766,0.005764961242675781
1731409973030026500,5.200026611328125,-0.0491786003112793,0.14557266235351562,-0.06399679183959961
1731409973039831300,5.209831298828125,0.10014772415161133,0.2753167152404785,0.027767658233642578
1731409973049636900,5.219636962890625,0.07396602630615234,0.27163219451904297,0.11881208419799805
1731409973059443200,5.229443115234375,0.03271484375,0.11586475372314453,-0.020040035247802734
1731409973069248800,5.239248779296875,0.008186817169189453,0.007651805877685547,-0.004487037658691406
1731409973079053600,5.249053466796875,-0.011754035949707031,-0.028045177459716797,-0.015915393829345703
1731409973088859100,5.258859130859375,-0.08571577072143555,-0.07732343673706055,-0.04142141342163086
1731409973098665500,5.26866552734375,-0.10234498977661133,-0.06251811981201172,-0.05472373962402344
1731409973108471000,5.278470947265625,-0.08843231201171875,-0.08825159072875977,-0.0724647045135498
1731409973118275800,5.28827587890625,-0.02578115463256836,-0.07839250564575195,-0.07377934455871582
1731409973128081400,5.298081298828125,0.028296947479248047,-0.09206056594848633,-0.16309881210327148
1731409973137887700,5.3078876953125,0.14955997467041016,-0.06281423568725586,-0.19988417625427246
1731409973147693300,5.317693359375,0.23090600967407227,-0.05483865737915039,-0.2817718982696533
1731409973157498000,5.327498046875,0.3388371467590332,-0.07500219345092773,-0.39607787132263184
1731409973167303700,5.3373037109375,0.48728322982788086,-0.11783361434936523,-0.5471358299255371
1731409973177110000,5.347110107421875,0.7231478691101074,-0.17313051223754883,-0.5954389572143555
1731409973186915600,5.35691552734375,1.0130047798156738,-0.23045921325683594,-0.5379962921142578
1731409973196720000,5.36672021484375,1.2474322319030762,-0.27281808853149414,-0.47669219970703125
1731409973206526000,5.37652587890625,1.1496539115905762,-0.26360464096069336,-0.40642571449279785
1731409973216332300,5.386332275390625,0.8268723487854004,-0.1811680793762207,-0.3353867530822754
1731409973226137600,5.3961376953125,0.3460097312927246,0.003032207489013672,-0.22729873657226562
1731409973235942400,5.4059423828125,-0.09646844863891602,0.24212980270385742,-0.09021353721618652
1731409973245748200,5.415748291015625,-0.41101646423339844,0.4667983055114746,-0.005680084228515625
1731409973255554600,5.425554443359375,-0.587031364440918,0.5975852012634277,0.05150771141052246
1731409973265360000,5.43535986328125,-0.576683521270752,0.6905031204223633,0.06109261512756348
1731409973275164700,5.44516455078125,-0.4863290786743164,0.7300944328308105,0.04954862594604492
1731409973284970200,5.45497021484375,-0.40172386169433594,0.6727828979492188,0.010168313980102539
1731409973294776600,5.464776611328125,-0.2603302001953125,0.5817146301269531,-0.031859397888183594
1731409973304582100,5.47458203125,-0.10957193374633789,0.47390079498291016,-0.03792095184326172
1731409973314387000,5.484386962890625,0.06704854965209961,0.35445690155029297,-0.04863476753234863
1731409973324192500,5.494192626953125,0.17305850982666016,0.23090124130249023,-0.07549405097961426
1731409973333998800,5.503998779296875,0.22606182098388672,0.17644071578979492,-0.07386612892150879
1731409973343804400,5.513804443359375,0.20754432678222656,0.1591014862060547,-0.04464125633239746
1731409973353609200,5.523609130859375,0.11304426193237305,0.13069963455200195,-0.002886533737182617
1731409973363414800,5.533414794921875,-0.00991058349609375,0.04633665084838867,0.03888559341430664
1731409973373221000,5.54322119140625,-0.07936573028564453,-0.034743309020996094,0.06857037544250488
1731409973383026700,5.553026611328125,-0.11699581146240234,-0.06068134307861328,0.12911057472229004
1731409973392831500,5.56283154296875,-0.24572277069091797,-0.13340091705322266,0.0830843448638916
1731409973402637000,5.572636962890625,-0.2629246711730957,-0.20317983627319336,0.0018284320831298828
1731409973412443400,5.582443359375,-0.18898773193359375,-0.20152664184570312,-0.07174420356750488
1731409973422249000,5.5922490234375,-0.2609977722167969,-0.21187353134155273,-0.20653343200683594
1731409973432053500,5.602053466796875,-0.28873777389526367,-0.3282041549682617,-0.3622779846191406
1731409973441859300,5.611859375,-0.18776798248291016,-0.4048347473144531,-0.4208674430847168
1731409973451665700,5.621665771484375,0.012824535369873047,-0.45347023010253906,-0.3550851345062256
1731409973461471200,5.63147119140625,0.09574699401855469,-0.4292945861816406,-0.2560606002807617
1731409973471276000,5.641276123046875,0.05765962600708008,-0.38811492919921875,-0.2185649871826172
1731409973481081300,5.651081298828125,0.06020784378051758,-0.3728337287902832,-0.2347400188446045
1731409973490888000,5.660887939453125,0.09812021255493164,-0.3522787094116211,-0.15779542922973633
1731409973500693200,5.670693359375,0.1004629135131836,-0.3076639175415039,-0.059560298919677734
1731409973510498000,5.680498046875,0.030248641967773438,-0.3029041290283203,-0.020377635955810547
1731409973520303900,5.690303955078125,-0.01780986785888672,-0.23851776123046875,0.009325742721557617
1731409973530110000,5.70010986328125,-0.13650989532470703,-0.13744688034057617,0.0443110466003418
1731409973539915500,5.70991552734375,-0.20017385482788086,-0.03147315979003906,0.07097411155700684
1731409973549720300,5.71972021484375,0.07027959823608398,0.03687429428100586,0.03992199897766113
1731409973559526000,5.72952587890625,-0.9244437217712402,0.06577920913696289,0.06537413597106934
1731409973569332500,5.73933251953125,0.7006168365478516,0.11997795104980469,-0.011334896087646484
1731409973579137800,5.7491376953125,-1.1859955787658691,0.10971212387084961,0.0704965591430664
1731409973588942600,5.758942626953125,0.8905644416809082,0.13322210311889648,-0.04517817497253418
1731409973598748200,5.768748046875,-1.0712971687316895,0.22502374649047852,0.060347557067871094
1731409973608554500,5.778554443359375,0.7082920074462891,0.21897220611572266,-0.016184329986572266
1731409973618360000,5.788360107421875,-0.5540533065795898,0.19005489349365234,0.06691312789916992
1731409973628164900,5.798164794921875,0.2589578628540039,0.06099128723144531,-0.022151947021484375
1731409973637970400,5.807970458984375,0.18410682678222656,0.09748125076293945,-0.017464637756347656
1731409973647776800,5.81777685546875,-0.34273862838745117,0.0277557373046875,-0.02828359603881836
1731409973657582300,5.827582275390625,0.7663388252258301,0.10549449920654297,-0.010639667510986328
1731409973667387100,5.83738720703125,-1.0076842308044434,0.021521568298339844,0.09736967086791992
1731409973677192700,5.847192626953125,0.9371938705444336,-0.03010416030883789,-0.013075828552246094
1731409973686999000,5.8569990234375,-1.1879806518554688,-0.111572265625,0.024216175079345703
1731409973696804600,5.8668046875,0.9498200416564941,-0.07652807235717773,-0.1090078353881836
1731409973706609400,5.876609375,-0.884157657623291,-0.04693889617919922,0.035826683044433594
1731409973716415000,5.8864150390625,0.5468778610229492,-0.11473417282104492,-0.03326749801635742
1731409973726221300,5.89622119140625,-0.3864631652832031,-0.14390230178833008,0.009133338928222656
1731409973736027000,5.90602685546875,-0.11083459854125977,-0.24129629135131836,0.013702869415283203
1731409973745831700,5.915831787109375,0.04695892333984375,-0.19123506546020508,0.0605006217956543
1731409973755637200,5.92563720703125,-0.15359973907470703,-0.23183774948120117,0.062103271484375
1731409973765443600,5.935443603515625,-0.29689645767211914,-0.17547130584716797,0.06614065170288086
1731409973775249200,5.945249267578125,-0.16746234893798828,-0.1535053253173828,0.06806755065917969
1731409973785054000,5.955053955078125,-0.3515033721923828,-0.1183023452758789,0.08889532089233398
1731409973794859500,5.964859619140625,-0.26926660537719727,-0.09146881103515625,0.11934185028076172
1731409973804665900,5.974665771484375,-0.26152610778808594,-0.053899288177490234,0.17122507095336914
1731409973814471400,5.984471435546875,-0.21400022506713867,-0.08561277389526367,0.21802091598510742
1731409973824276200,5.994276123046875,-0.19750308990478516,-0.07670211791992188,0.2338395118713379
1731409973834081800,6.004081787109375,-0.24214887619018555,-0.06793403625488281,0.24987030029296875
1731409973843888000,6.01388818359375,-0.24120759963989258,-0.07820701599121094,0.19998741149902344
1731409973853693700,6.023693603515625,-0.24712896347045898,-0.08130836486816406,0.1560530662536621
1731409973863498500,6.03349853515625,-0.25289106369018555,-0.10329055786132812,0.13664531707763672
1731409973873304000,6.043303955078125,-0.25420141220092773,-0.11110162734985352,0.1340775489807129
1731409973883110400,6.0531103515625,-0.25103092193603516,-0.11915445327758789,0.14593267440795898
1731409973892916000,6.062916015625,-0.24593210220336914,-0.08510589599609375,0.20245742797851562
1731409973902720800,6.072720703125,-0.3052182197570801,-0.02405691146850586,0.1804203987121582
1731409973912526300,6.0825263671875,-0.3712635040283203,0.03740406036376953,0.16866683959960938
1731409973922332700,6.092332763671875,-0.3419976234436035,0.07368278503417969,0.1581101417541504
1731409973932138200,6.10213818359375,-0.2400369644165039,0.057272911071777344,0.10607004165649414
1731409973941943000,6.111943115234375,-0.12296056747436523,0.0292816162109375,0.05076789855957031
1731409973951748600,6.12174853515625,-0.00046253204345703125,0.015969276428222656,0.022568225860595703
1731409973961555000,6.131554931640625,0.02587747573852539,-0.013652324676513672,0.01617431640625
1731409973971360500,6.141360595703125,0.013980388641357422,-0.02169513702392578,0.042827606201171875
1731409973981165300,6.151165283203125,-0.004627227783203125,-0.006148815155029297,0.07172727584838867
1731409973990971000,6.160970947265625,-0.027115345001220703,0.018590450286865234,0.060764312744140625
1731409974000777200,6.170777099609375,-0.016088485717773438,-0.015816211700439453,0.03827381134033203
1731409974010582800,6.180582763671875,-0.038177490234375,-0.016517162322998047,0.03712129592895508
1731409974020387600,6.1903876953125,-0.05286121368408203,-0.035919189453125,0.019292831420898438
1731409974030193200,6.200193115234375,-0.0418701171875,-0.021970272064208984,-0.020153045654296875
1731409974039999500,6.20999951171875,-0.06963968276977539,-0.01817178726196289,0.0018095970153808594
1731409974049805000,6.21980517578125,0.0039463043212890625,0.025101184844970703,0.06134986877441406
1731409974059609900,6.22960986328125,0.01569366455078125,0.020552635192871094,0.09011650085449219
1731409974069415400,6.23941552734375,0.029054641723632812,-0.005624294281005859,0.08078861236572266
1731409974079221800,6.2492216796875,0.08172130584716797,0.015217781066894531,0.0740666389465332
1731409974089027300,6.25902734375,0.04671621322631836,0.10150957107543945,0.09159517288208008
1731409974098832100,6.26883203125,-0.06832122802734375,0.06818723678588867,0.031083106994628906
1731409974108637700,6.2786376953125,-0.057292938232421875,0.044320106506347656,-0.026117801666259766
1731409974118444000,6.288444091796875,0.0025987625122070312,0.06272411346435547,-0.023276329040527344
1731409974128249600,6.29824951171875,0.06593799591064453,0.08729934692382812,-0.01523590087890625
1731409974138054400,6.308054443359375,0.05029726028442383,0.10393714904785156,-0.04460573196411133
1731409974147860000,6.31785986328125,0.04890918731689453,0.06589412689208984,-0.07562398910522461
1731409974157666300,6.327666259765625,0.06391525268554688,0.05434894561767578,-0.08737897872924805
1731409974167471900,6.337471923828125,0.07163190841674805,0.03356504440307617,-0.08004570007324219
1731409974177276700,6.347276611328125,0.07725381851196289,0.055608272552490234,-0.08659648895263672
1731409974187082200,6.357082275390625,0.09501934051513672,0.08472728729248047,-0.07180118560791016
1731409974196888800,6.366888916015625,0.09621763229370117,0.08774089813232422,-0.01736927032470703
1731409974206694100,6.376694091796875,0.07416677474975586,0.03222942352294922,-0.046398162841796875
1731409974216499000,6.3864990234375,0.09987974166870117,0.01328420639038086,-0.02323007583618164
1731409974226304800,6.3963046875,0.09424924850463867,0.0324249267578125,-0.01278829574584961
1731409974236111000,6.406111083984375,0.036685943603515625,0.01110696792602539,-0.019127368927001953
1731409974245916400,6.41591650390625,0.06030845642089844,0.01619434356689453,-0.006516933441162109
1731409974255721200,6.42572119140625,0.05547046661376953,-0.013856887817382812,0.005735874176025391
1731409974265527000,6.435527099609375,0.04815196990966797,-0.02447032928466797,0.04324913024902344
1731409974275333400,6.44533349609375,0.01479959487915039,0.0050296783447265625,0.04460859298706055
1731409974285139000,6.455138916015625,-0.030162811279296875,0.05022764205932617,0.02938699722290039
1731409974294943700,6.46494384765625,-0.05577898025512695,0.07333087921142578,0.026112079620361328
1731409974304749300,6.474749267578125,-0.07848739624023438,0.10048389434814453,0.04937601089477539
1731409974314555600,6.4845556640625,-0.08408164978027344,0.1037445068359375,0.06537437438964844
1731409974324361200,6.494361328125,-0.04452085494995117,0.10447883605957031,0.0628976821899414
1731409974334166000,6.504166015625,0.004343509674072266,0.10059404373168945,0.06809282302856445
1731409974343971600,6.5139716796875,-0.036594390869140625,0.019495487213134766,0.016700267791748047
1731409974353778000,6.52377783203125,0.015382766723632812,-0.036229610443115234,-0.06226491928100586
1731409974363583500,6.53358349609375,0.007740497589111328,-0.01558828353881836,-0.048122406005859375
1731409974373388300,6.54338818359375,-0.03247976303100586,0.004624366760253906,-0.040810585021972656
1731409974383193900,6.55319384765625,-0.057778358459472656,-0.008424758911132812,-0.04056739807128906
1731409974393000200,6.563000244140625,-0.10413694381713867,-0.03080892562866211,-0.06640386581420898
1731409974402805800,6.5728056640625,-0.12906599044799805,-0.032025814056396484,-0.06836843490600586
1731409974412610600,6.582610595703125,-0.09507513046264648,-0.04291248321533203,-0.08446741104125977
1731409974422416100,6.592416015625,-0.05679798126220703,-0.03500795364379883,-0.099761962890625
1731409974432222500,6.602222412109375,0.01190805435180664,-0.052790164947509766,-0.1194157600402832
1731409974442028000,6.612028076171875,0.03952360153198242,-0.046512603759765625,-0.12250185012817383
1731409974451832800,6.621832763671875,-0.0019078254699707031,-0.02865457534790039,-0.11640453338623047
1731409974461638400,6.631638427734375,-0.0005140304565429688,0.0006251335144042969,-0.0753335952758789
1731409974471445000,6.641445068359375,0.01976156234741211,0.017576217651367188,-0.02297353744506836
1731409974481250300,6.651250244140625,0.016149520874023438,0.03415966033935547,-0.011383056640625
1731409974491055000,6.66105517578125,0.024388790130615234,0.029415607452392578,-0.0825648307800293
1731409974500861000,6.67086083984375,0.08906698226928711,0.029628276824951172,-0.1056365966796875
1731409974510667300,6.680667236328125,0.1079111099243164,0.032413482666015625,-0.1075124740600586
1731409974520472800,6.690472900390625,0.13358545303344727,0.025940418243408203,-0.0977945327758789
1731409974530277600,6.700277587890625,0.18005084991455078,0.017426490783691406,-0.097930908203125
1731409974540083200,6.710083251953125,0.2568488121032715,-0.011655807495117188,-0.13109445571899414
1731409974549889500,6.7198896484375,0.3213658332824707,-0.02773284912109375,-0.1403026580810547
1731409974559695000,6.729695068359375,0.34749555587768555,-0.021739959716796875,-0.10746049880981445
1731409974569500000,6.7395,0.3023500442504883,0.029170513153076172,-0.05707073211669922
1731409974579305500,6.749305419921875,0.21983814239501953,0.09810209274291992,0.00830078125
1731409974589111800,6.75911181640625,0.13822126388549805,0.14921951293945312,0.0745854377746582
1731409974598917400,6.76891748046875,0.062090396881103516,0.17560482025146484,0.11362028121948242
1731409974608722200,6.77872216796875,-0.03221750259399414,0.1987900733947754,0.14005517959594727
1731409974618527700,6.78852783203125,-0.06873226165771484,0.18823862075805664,0.1262674331665039
1731409974628334000,6.798333984375,-0.04383993148803711,0.18666791915893555,0.13195323944091797
1731409974638139600,6.8081396484375,0.0065898895263671875,0.20598602294921875,0.0957493782043457
1731409974647944400,6.8179443359375,0.07333850860595703,0.2343449592590332,0.11763858795166016
1731409974657750000,6.82775,0.14679908752441406,0.2647519111633301,0.11637115478515625
1731409974667556600,6.837556640625,0.19147968292236328,0.28806114196777344,0.08470582962036133
1731409974677362000,6.84736181640625,0.17756891250610352,0.29024791717529297,0.08951044082641602
1731409974687166700,6.857166748046875,0.13651323318481445,0.25963735580444336,0.10449552536010742
1731409974696972500,6.86697265625,0.09641218185424805,0.19894838333129883,0.08189773559570312
1731409974706779000,6.87677880859375,0.005080223083496094,0.12956571578979492,0.0081939697265625
1731409974716584400,6.88658447265625,-0.009021759033203125,0.061511993408203125,-0.01932382583618164
1731409974726389200,6.89638916015625,-0.12621068954467773,-0.031215667724609375,-0.0650014877319336
1731409974736194800,6.90619482421875,-0.11922264099121094,-0.1367034912109375,-0.08163738250732422
1731409974746001200,6.916001220703125,-0.07250308990478516,-0.11590862274169922,-0.07193470001220703
1731409974755806700,6.925806640625,-0.16889715194702148,-0.15475177764892578,-0.14083385467529297
1731409974765611500,6.935611572265625,-0.09742879867553711,-0.16472911834716797,-0.2214956283569336
1731409974775417000,6.9454169921875,-0.03706836700439453,-0.12488031387329102,-0.22413969039916992
1731409974785223400,6.955223388671875,0.043234825134277344,-0.02428293228149414,-0.13556480407714844
1731409974795029000,6.965029052734375,0.056311607360839844,-0.007538795471191406,-0.06760692596435547
1731409974804833800,6.974833740234375,0.03885602951049805,-0.03073883056640625,-0.05980730056762695
1731409974814639400,6.984639404296875,0.0478057861328125,-0.10011100769042969,-0.08092308044433594
1731409974824445700,6.99444580078125,0.10202503204345703,-0.12750864028930664,-0.0784759521484375
1731409974834251500,7.00425146484375,0.11116695404052734,-0.09967613220214844,-0.03864145278930664
1731409974844056000,7.01405615234375,0.09708976745605469,-0.08597469329833984,-0.016029834747314453
1731409974853862000,7.02386181640625,0.09510374069213867,-0.02982044219970703,0.015259265899658203
1731409974863668200,7.033668212890625,0.0392909049987793,0.013729095458984375,0.03919076919555664
1731409974873473800,7.043473876953125,0.025051116943359375,-0.00688934326171875,0.06572294235229492
1731409974883278600,7.053278564453125,0.032421112060546875,-0.022555828094482422,0.07809638977050781
1731409974893084200,7.063084228515625,-0.014655590057373047,-0.02171802520751953,0.07392024993896484
1731409974902890500,7.072890380859375,-0.0779719352722168,-0.007378101348876953,0.07945632934570312
1731409974912696000,7.082696044921875,-0.1334552764892578,0.020374298095703125,0.11115741729736328
1731409974922500900,7.0925009765625,-0.21202754974365234,0.03762054443359375,0.09794998168945312
1731409974932306400,7.102306396484375,-0.2590317726135254,0.0538334846496582,0.09037208557128906
1731409974942112800,7.11211279296875,-0.2350010871887207,0.04557228088378906,0.0575556755065918
1731409974951918300,7.12191845703125,-0.22584104537963867,0.003948211669921875,0.004483699798583984
1731409974961723100,7.13172314453125,-0.20276498794555664,-0.02775096893310547,-0.03571796417236328
1731409974971528700,7.14152880859375,-0.13071346282958984,0.011638641357421875,-0.04935455322265625
1731409974981335300,7.151335205078125,-0.13975191116333008,0.04812288284301758,-0.05094623565673828
1731409974991140900,7.161140869140625,-0.09431076049804688,0.05346488952636719,0.027667999267578125
1731409975000945700,7.170945556640625,-0.1359844207763672,-0.056784629821777344,0.13446331024169922
1731409975010751200,7.180751220703125,-0.026554584503173828,-0.10888147354125977,0.07698202133178711
1731409975020557600,7.1905576171875,0.016808509826660156,-0.1157388687133789,0.029521465301513672
1731409975030363100,7.200363037109375,0.007642269134521484,-0.06154441833496094,0.006804466247558594
1731409975040168000,7.21016796875,0.024570941925048828,-0.05076408386230469,-0.005842685699462891
1731409975049973500,7.219973388671875,-0.010474205017089844,-0.1059260368347168,-0.058400630950927734
1731409975059779800,7.22977978515625,-0.014330863952636719,-0.17874574661254883,-0.10812616348266602
1731409975069585400,7.23958544921875,-0.025264263153076172,-0.1842479705810547,-0.11975431442260742
1731409975079390200,7.24939013671875,-0.07585620880126953,-0.2080669403076172,-0.1057119369506836
1731409975089195800,7.25919580078125,-0.11829042434692383,-0.1913151741027832,-0.07061290740966797
1731409975099002400,7.26900244140625,-0.12947940826416016,-0.16314220428466797,-0.0760951042175293
1731409975108807700,7.2788076171875,-0.13602066040039062,-0.14023828506469727,-0.06049013137817383
1731409975118612500,7.288612548828125,-0.11902761459350586,-0.1508474349975586,-0.030904769897460938
1731409975128418300,7.298418212890625,-0.12590551376342773,-0.16147184371948242,0.017264366149902344
1731409975138224600,7.308224609375,-0.08592033386230469,-0.16525554656982422,0.02713918685913086
1731409975148030200,7.3180302734375,-0.07615470886230469,-0.14375591278076172,0.026712894439697266
1731409975157835000,7.3278349609375,-0.16697263717651367,-0.08102607727050781,-0.016954898834228516
1731409975167640600,7.337640625,-0.15195465087890625,-0.022464275360107422,-0.032643795013427734
1731409975177447000,7.347447021484375,-0.2672080993652344,0.01102304458618164,0.04624128341674805
1731409975187252500,7.35725244140625,-0.2580537796020508,0.08846426010131836,0.11484098434448242
1731409975197057300,7.367057373046875,-0.22985172271728516,0.1738123893737793,0.15019845962524414
1731409975206862800,7.37686279296875,-0.11650371551513672,0.2108783721923828,0.12695074081420898
1731409975216669400,7.38666943359375,-0.03935384750366211,0.2004251480102539,0.1405043601989746
1731409975226474800,7.396474853515625,0.08713388442993164,0.19039678573608398,0.10327816009521484
1731409975236279600,7.406279541015625,0.18650245666503906,0.1454763412475586,0.0627899169921875
1731409975246085400,7.41608544921875,0.12189292907714844,0.05885791778564453,-0.03558969497680664
1731409975255891700,7.4258916015625,0.14721012115478516,0.04672527313232422,-0.1520857810974121
1731409975265697300,7.435697265625,0.12943267822265625,0.09139585494995117,-0.14006948471069336
1731409975275502000,7.445502197265625,0.07458686828613281,0.18000411987304688,0.008797645568847656
1731409975285307600,7.4553076171875,0.03526878356933594,0.22938108444213867,0.12070226669311523
1731409975295114000,7.465114013671875,-0.005599021911621094,0.24002408981323242,0.14189815521240234
1731409975304919800,7.474919921875,-0.04865407943725586,0.22862958908081055,0.09015941619873047
1731409975314724400,7.484724365234375,-0.025266647338867188,0.21227073669433594,0.035056114196777344
1731409975324530200,7.4945302734375,-0.0020771026611328125,0.1677532196044922,-0.018541812896728516
1731409975334336500,7.50433642578125,0.016529560089111328,0.08916425704956055,-0.0783853530883789
1731409975344142000,7.51414208984375,0.0281982421875,0.026491165161132812,-0.1373920440673828
1731409975353947000,7.52394677734375,0.0470433235168457,-0.048760414123535156,-0.16753840446472168
1731409975363752400,7.53375244140625,0.0539698600769043,-0.09897756576538086,-0.192612886428833
1731409975373558800,7.543558837890625,0.13007545471191406,-0.14527654647827148,-0.1299123764038086
1731409975383364400,7.5533642578125,0.0740666389465332,-0.18784093856811523,-0.13848423957824707
1731409975393169200,7.563169189453125,0.1838817596435547,-0.25077390670776367,-0.13516855239868164
1731409975402975000,7.57297509765625,0.2191929817199707,-0.23001575469970703,-0.10832428932189941
1731409975412781300,7.58278125,0.06473779678344727,-0.23550701141357422,-0.1701974868774414
1731409975422587000,7.5925869140625,0.03645181655883789,-0.2619590759277344,-0.25882506370544434
1731409975432391700,7.6023916015625,-0.06065082550048828,-0.2432255744934082,-0.23914742469787598
1731409975442197200,7.612197265625,-0.0837855339050293,-0.16627168655395508,-0.16129183769226074
1731409975452003600,7.622003662109375,-0.09827899932861328,-0.10765933990478516,-0.05716133117675781
1731409975461809200,7.63180908203125,-0.14874744415283203,-0.052822113037109375,-0.0377039909362793
1731409975471614000,7.641614013671875,-0.1566767692565918,-0.02251577377319336,-0.0853273868560791
1731409975481419800,7.651419677734375,-0.17906665802001953,0.009701728820800781,-0.11409401893615723
1731409975491226000,7.66122607421875,-0.19163846969604492,0.0603184700012207,-0.0883643627166748
1731409975501031700,7.67103173828125,-0.1614680290222168,0.09363985061645508,-0.0299224853515625
1731409975510836500,7.68083642578125,-0.12416219711303711,0.13847923278808594,-0.012158870697021484
1731409975520642000,7.69064208984375,-0.102813720703125,0.15495729446411133,0.0035161972045898438
1731409975530448400,7.700448486328125,-0.123138427734375,0.15980005264282227,0.015044212341308594
1731409975540254200,7.710254150390625,-0.09040260314941406,0.13651275634765625,0.032086849212646484
1731409975550058800,7.720058837890625,-0.07129335403442383,0.08810091018676758,0.035569190979003906
1731409975559864600,7.729864501953125,-0.06814813613891602,0.026572227478027344,0.030439376831054688
1731409975569671000,7.7396708984375,-0.0761566162109375,0.010863304138183594,0.05921792984008789
1731409975579476500,7.7494765625,-0.10759639739990234,0.02809762954711914,0.07855224609375
1731409975589281300,7.75928125,-0.19338178634643555,0.04421806335449219,0.05086517333984375
1731409975599086800,7.7690869140625,-0.24806690216064453,0.05204153060913086,0.0404362678527832
1731409975608893200,7.77889306640625,-0.23646020889282227,0.05415201187133789,0.059177398681640625
1731409975618699000,7.788698974609375,-0.2016582489013672,0.015396595001220703,0.0764474868774414
1731409975628503600,7.798503662109375,-0.10650110244750977,-0.023470401763916016,0.014325618743896484
1731409975638309400,7.808309326171875,0.038641929626464844,-0.062239646911621094,-0.06022167205810547
1731409975648115700,7.81811572265625,0.06573772430419922,-0.1357107162475586,-0.1479499340057373
1731409975657921300,7.82792138671875,0.08229684829711914,-0.22197532653808594,-0.2588942050933838
1731409975667726000,7.83772607421875,0.12877559661865234,-0.19831275939941406,-0.279449462890625
1731409975677531600,7.84753173828125,0.07269859313964844,-0.14447307586669922,-0.2650742530822754
1731409975687338200,7.857338134765625,0.09298086166381836,-0.08656024932861328,-0.27007198333740234
1731409975697143800,7.867143798828125,0.1226205825805664,-0.08557891845703125,-0.23782682418823242
1731409975706948600,7.876948486328125,0.13492822647094727,-0.08197736740112305,-0.23067688941955566
1731409975716754200,7.886754150390625,0.1484227180480957,-0.07612228393554688,-0.19674158096313477
1731409975726560500,7.896560546875,0.13959169387817383,-0.016350269317626953,-0.12446379661560059
1731409975736366300,7.906366455078125,0.10436439514160156,0.016468048095703125,-0.10131454467773438
1731409975746171000,7.9161708984375,0.08350515365600586,0.04406166076660156,-0.09558296203613281
1731409975755976700,7.925976806640625,0.07222938537597656,0.03849363327026367,-0.10243487358093262
1731409975765783000,7.935782958984375,0.11525344848632812,0.026485443115234375,-0.10780882835388184
1731409975775588600,7.945588623046875,0.06797027587890625,0.06471443176269531,-0.09081411361694336
1731409975785393400,7.955393310546875,0.014134883880615234,0.08578729629516602,-0.024994373321533203
1731409975795199000,7.965198974609375,0.031890869140625,0.144317626953125,-0.02632904052734375
1731409975805005600,7.975005615234375,0.04954814910888672,0.1948375701904297,-0.029737234115600586
1731409975814811100,7.98481103515625,0.08357810974121094,0.23523855209350586,-0.05188179016113281
1731409975824616000,7.994615966796875,0.14397954940795898,0.24492931365966797,-0.06606411933898926
1731409975834421500,8.00442138671875,0.21181964874267578,0.21529817581176758,-0.1148219108581543
1731409975844228000,8.01422802734375,0.26119279861450195,0.1473379135131836,-0.1462385654449463
1731409975854033400,8.024033447265625,0.30635976791381836,0.10282516479492188,-0.167799711227417
1731409975863838500,8.03383837890625,0.3495802879333496,0.029256820678710938,-0.146378755569458
1731409975873644000,8.04364404296875,0.39559507369995117,-0.04223155975341797,-0.10396218299865723
1731409975883450400,8.053450439453124,0.4251384735107422,-0.09530782699584961,-0.10247659683227539
1731409975893256200,8.063256103515625,0.32179784774780273,-0.07893514633178711,-0.09531044960021973
1731409975903060700,8.073060791015624,0.05353403091430664,-0.0092926025390625,-0.08284115791320801
1731409975912866600,8.082866455078126,-0.21682214736938477,0.0769495964050293,-0.010156393051147461
1731409975922673000,8.0926728515625,-0.3331174850463867,0.13971710205078125,0.06828069686889648
1731409975932478500,8.102478515625,-0.3466057777404785,0.1749558448791504,0.11298346519470215
1731409975942283300,8.112283203125,-0.2757902145385742,0.16911602020263672,0.05792880058288574
1731409975952089000,8.122089111328124,-0.17148828506469727,0.20310592651367188,-0.010755300521850586
1731409975961895400,8.1318955078125,-0.10185003280639648,0.18254327774047852,-0.08794665336608887
1731409975971701000,8.141700927734375,0.02392864227294922,0.16992616653442383,-0.10244083404541016
1731409975981505800,8.151505859375,0.09236288070678711,0.14655685424804688,-0.06922602653503418
1731409975991311400,8.161311279296875,0.092803955078125,0.15973806381225586,-0.014827966690063477
1731409976001118000,8.171117919921874,0.054737091064453125,0.17574214935302734,0.016106843948364258
1731409976010923500,8.180923583984375,0.045035362243652344,0.14981412887573242,0.014971733093261719
1731409976020728300,8.190728271484375,0.07664918899536133,0.11994504928588867,0.014912843704223633
1731409976030534000,8.200533935546876,0.1346449851989746,0.1237783432006836,0.04414844512939453
1731409976040340500,8.210340576171875,0.11809825897216797,0.08579635620117188,0.0578765869140625
1731409976050146000,8.22014599609375,0.088104248046875,-0.014753341674804688,0.0006999969482421875
1731409976059950800,8.229950927734375,0.16000127792358398,-0.1087336540222168,-0.01558232307434082
1731409976069756400,8.23975634765625,0.13956069946289062,-0.1395273208618164,-0.03838300704956055
1731409976079562800,8.249562744140626,0.12352848052978516,-0.2472376823425293,-0.1375265121459961
1731409976089368600,8.25936865234375,0.20541906356811523,-0.3011493682861328,-0.197160005569458
1731409976099173400,8.26917333984375,0.23071718215942383,-0.2667088508605957,-0.18973469734191895
1731409976108979000,8.27897900390625,0.19045686721801758,-0.1813373565673828,-0.10653829574584961
1731409976118785300,8.288785400390625,-0.039928436279296875,-0.10989904403686523,-0.043503522872924805
1731409976128591000,8.298591064453126,-0.25852060317993164,-0.04482603073120117,-0.006365060806274414
1731409976138395600,8.308395751953125,-0.37526702880859375,0.004846096038818359,0.029527902603149414
1731409976148201500,8.318201416015626,-0.3536968231201172,0.018433570861816406,0.08803367614746094
1731409976158007800,8.3280078125,-0.27338457107543945,0.024924278259277344,0.11736679077148438
1731409976167813600,8.337813720703124,-0.22198200225830078,-0.0035648345947265625,0.0546422004699707
1731409976177618200,8.3476181640625,-0.09996509552001953,-0.04512596130371094,0.004981279373168945
1731409976187424000,8.357424072265625,0.018625259399414062,-0.07826519012451172,-0.03888273239135742
1731409976197230300,8.367230224609376,0.08184432983398438,-0.11022615432739258,-0.07021284103393555
1731409976207036000,8.377035888671875,0.09314155578613281,-0.10338926315307617,-0.03476881980895996
1731409976216840700,8.3868408203125,0.04855775833129883,-0.08221960067749023,0.04075336456298828
1731409976226646500,8.396646484375,-0.011069774627685547,-0.0707249641418457,0.07116436958312988
1731409976236452900,8.406452880859375,-0.06441736221313477,-0.09939002990722656,0.06653738021850586
1731409976246258400,8.416258544921876,-0.11432933807373047,-0.14176130294799805,0.05534219741821289
1731409976256063200,8.426063232421875,-0.1472024917602539,-0.15070486068725586,0.0302581787109375
1731409976265869000,8.435869140625,-0.16360950469970703,-0.13851690292358398,-0.004246234893798828
1731409976275675400,8.44567529296875,-0.16878604888916016,-0.1411433219909668,-0.005532741546630859
1731409976285481000,8.45548095703125,-0.15824270248413086,-0.11358308792114258,0.03517007827758789
1731409976295285800,8.46528564453125,-0.09438228607177734,-0.09170055389404297,0.06337308883666992
1731409976305091600,8.475091552734375,-0.027347087860107422,-0.10351800918579102,0.10286092758178711
1731409976314898000,8.48489794921875,-0.07329702377319336,-0.17229032516479492,0.0821995735168457
1731409976324703500,8.494703369140625,-0.01837444305419922,-0.2215433120727539,0.02339792251586914
1731409976334508300,8.50450830078125,-0.057817935943603516,-0.20038557052612305,-0.004405975341796875
1731409976344314000,8.514314208984375,-0.013888359069824219,-0.15710067749023438,-0.032862186431884766
1731409976354120400,8.524120361328125,-0.002804279327392578,-0.11757087707519531,-0.010042190551757812
1731409976363926000,8.533926025390626,-0.026265621185302734,-0.13819217681884766,-0.01204061508178711
1731409976373730800,8.543730712890625,-0.0053577423095703125,-0.14380931854248047,-0.0629887580871582
1731409976383536600,8.55353662109375,0.07181167602539062,-0.08487081527709961,-0.02489471435546875
1731409976393343000,8.563343017578125,0.08462810516357422,0.008899688720703125,0.09019756317138672
1731409976403148500,8.5731484375,0.04379749298095703,0.07534027099609375,0.15478992462158203
1731409976412953300,8.582953369140625,0.05130624771118164,0.08164405822753906,0.2100377082824707
1731409976422759200,8.59275927734375,0.05457115173339844,0.04787921905517578,0.24395513534545898
1731409976432565500,8.6025654296875,0.013996124267578125,0.04087209701538086,0.26876115798950195
1731409976442371000,8.61237109375,-0.00562286376953125,0.022794723510742188,0.24480152130126953
1731409976452176000,8.62217578125,0.016306400299072266,0.03385019302368164,0.2620062828063965
1731409976461981700,8.631981689453125,-0.015494823455810547,0.03786468505859375,0.26791954040527344
1731409976471788000,8.6417880859375,-0.05310535430908203,0.049042701721191406,0.23916244506835938
1731409976481593600,8.651593505859376,-0.09397363662719727,0.07908439636230469,0.23993349075317383
1731409976491398400,8.6613984375,-0.14293813705444336,0.09916877746582031,0.2345733642578125
1731409976501204200,8.671204345703124,-0.1668543815612793,0.08812141418457031,0.28940773010253906
1731409976511010600,8.681010498046875,-0.16399240493774414,0.09571170806884766,0.3092765808105469
1731409976520816400,8.69081640625,-0.18451833724975586,0.0838918685913086,0.31567859649658203
1731409976530621200,8.70062109375,-0.19270610809326172,0.08116388320922852,0.31368350982666016
1731409976540426800,8.7104267578125,-0.20501375198364258,0.049640655517578125,0.28029870986938477
1731409976550233000,8.720233154296874,-0.17684507369995117,0.011089801788330078,0.22503376007080078
1731409976560039000,8.730038818359375,-0.17047595977783203,-0.010985374450683594,0.1620941162109375
1731409976569843700,8.73984375,-0.2283158302307129,0.0064411163330078125,0.10557413101196289
1731409976579649300,8.749649169921875,-0.3397812843322754,0.045838356018066406,0.08200454711914062
1731409976589455600,8.75945556640625,-0.4070749282836914,0.019852161407470703,0.0487971305847168
1731409976599261400,8.769261474609374,-0.33875417709350586,0.002979278564453125,0.0012383460998535156
1731409976609066200,8.779066162109375,-0.31882762908935547,-0.009813308715820312,-0.12671327590942383
1731409976618871800,8.788871826171874,-0.27155256271362305,-0.025611400604248047,-0.23308801651000977
1731409976628678100,8.79867822265625,-0.1735548973083496,-0.02994680404663086,-0.23826265335083008
1731409976638484000,8.80848388671875,-0.08435869216918945,-0.03471088409423828,-0.17674541473388672
1731409976648288800,8.818288818359376,0.019988059997558594,-0.05860424041748047,-0.12952280044555664
1731409976658094300,8.82809423828125,0.09408092498779297,-0.06337118148803711,-0.10678386688232422
1731409976667901000,8.83790087890625,0.08360910415649414,-0.08246612548828125,-0.13701868057250977
1731409976677706500,8.84770654296875,0.043792724609375,-0.06867170333862305,-0.18197870254516602
1731409976687511300,8.85751123046875,0.06494665145874023,-0.03888988494873047,-0.18932390213012695
1731409976697316900,8.86731689453125,0.15654850006103516,-0.006802558898925781,-0.13107633590698242
1731409976707123500,8.87712353515625,0.1416616439819336,0.009211063385009766,-0.06686687469482422
1731409976716929000,8.886928955078124,0.14896774291992188,-0.02612447738647461,-0.09325885772705078
1731409976726733800,8.89673388671875,0.3098421096801758,-0.047898292541503906,-0.12962961196899414
1731409976736539400,8.906539306640624,0.31574201583862305,-0.06550931930541992,-0.15259552001953125
1731409976746346000,8.916345947265626,0.30942630767822266,-0.12180757522583008,-0.2126767635345459
1731409976756151600,8.926151611328125,0.4014096260070801,-0.15018510818481445,-0.25566935539245605
1731409976765956400,8.935956298828126,0.46818971633911133,-0.08985614776611328,-0.22228789329528809
1731409976775762200,8.94576220703125,0.47997188568115234,0.02715444564819336,-0.14160728454589844
1731409976785568500,8.955568603515625,0.3286409378051758,0.14731836318969727,-0.09183835983276367
1731409976795374000,8.9653740234375,0.13648080825805664,0.21599483489990234,-0.0018148422241210938
1731409976805179000,8.975178955078125,-0.012912750244140625,0.27634191513061523,0.08862972259521484
1731409976814984700,8.984984619140626,-0.08925867080688477,0.29529619216918945,0.1804337501525879
1731409976824791000,8.994791015625,-0.06744241714477539,0.2875819206237793,0.220184326171875
1731409976834596600,9.0045966796875,-0.057374000549316406,0.2441554069519043,0.1288442611694336
1731409976844401400,9.0144013671875,0.01865386962890625,0.18932723999023438,-0.002480030059814453
1731409976854207200,9.024207275390625,0.11246967315673828,0.1353917121887207,-0.11008358001708984
1731409976864013600,9.034013671875,0.18849658966064453,0.11060333251953125,-0.13078641891479492
1731409976873819400,9.0438193359375,0.25901126861572266,0.06522417068481445,-0.1201944351196289
1731409976883624200,9.053624267578124,0.26325511932373047,0.025530338287353516,-0.09958267211914062
1731409976893429800,9.0634296875,0.2162461280822754,0.029155254364013672,-0.10952949523925781
1731409976903236000,9.073236083984375,0.14420413970947266,0.023223876953125,-0.12377786636352539
1731409976913042000,9.0830419921875,0.08942317962646484,-0.020550251007080078,-0.10732078552246094
1731409976922846700,9.0928466796875,0.07296371459960938,-0.03783464431762695,-0.08185863494873047
1731409976932652300,9.10265234375,0.03473472595214844,-0.0363774299621582,-0.06916284561157227
1731409976942459000,9.112458984375,-0.008970260620117188,-0.05199909210205078,-0.07417440414428711
1731409976952264400,9.122264404296875,-0.005940437316894531,-0.053741455078125,-0.039754390716552734
1731409976962069200,9.1320693359375,0.029453754425048828,-0.0440826416015625,-0.01542806625366211
1731409976971874800,9.141874755859375,0.13183307647705078,-0.020456790924072266,0.024003028869628906
1731409976981681400,9.151681396484374,0.12561702728271484,-0.08191394805908203,0.02605438232421875
1731409976991487000,9.161487060546875,0.18501806259155273,-0.11594915390014648,-0.018019676208496094
1731409977001291800,9.171291748046874,0.2194514274597168,-0.07134246826171875,-0.03667259216308594
1731409977011097600,9.18109765625,0.18972158432006836,-0.0013146400451660156,0.003391265869140625
1731409977020904000,9.190904052734375,0.2104167938232422,0.051557064056396484,0.06858682632446289
1731409977030709500,9.20070947265625,0.15875911712646484,0.03332376480102539,0.09808731079101562
1731409977040514300,9.210514404296875,0.11134958267211914,-0.00731658935546875,0.1107025146484375
1731409977050320100,9.220320068359374,0.049121856689453125,-0.016028881072998047,0.14681339263916016
1731409977060126500,9.23012646484375,-0.058922767639160156,-0.008061408996582031,0.18962717056274414
1731409977069932000,9.23993212890625,-0.09233522415161133,0.01324462890625,0.2372913360595703
1731409977079736800,9.24973681640625,-0.08056879043579102,0.09441614151000977,0.2408771514892578
1731409977089542700,9.259542724609375,-0.09667301177978516,0.15015649795532227,0.2436838150024414
1731409977099349000,9.269348876953124,-0.08795785903930664,0.21896123886108398,0.21976089477539062
1731409977109154800,9.27915478515625,-0.17516803741455078,0.27910375595092773,0.2638716697692871
1731409977118959600,9.288959716796874,-0.12411928176879883,0.22477293014526367,0.19298839569091797
1731409977128765200,9.29876513671875,-0.04518842697143555,0.14300107955932617,0.14056777954101562
1731409977138571500,9.308571533203125,0.027817726135253906,0.09092998504638672,0.03957796096801758
1731409977148377300,9.31837744140625,0.043097496032714844,0.023302555084228516,-0.05511808395385742
1731409977158182100,9.32818212890625,0.0343012809753418,-0.03154182434082031,-0.09898853302001953
1731409977167987700,9.33798779296875,0.05328178405761719,-0.08108091354370117,-0.10478734970092773
1731409977177794300,9.347794189453126,0.03091287612915039,-0.13011646270751953,-0.08544397354125977
1731409977187600000,9.357599853515625,-0.006199836730957031,-0.13629865646362305,-0.03661394119262695
1731409977197404700,9.36740478515625,-0.024501323699951172,-0.14271831512451172,-0.007750511169433594
1731409977207210200,9.377210205078125,-0.04332876205444336,-0.16590499877929688,-0.005756378173828125
1731409977217016800,9.387016845703124,-0.05534219741821289,-0.14880752563476562,0.014478206634521484
1731409977226822400,9.396822509765625,-0.06778860092163086,-0.1554412841796875,-0.006647586822509766
1731409977236627200,9.406627197265625,-0.13486623764038086,-0.09157800674438477,0.05207633972167969
1731409977246432800,9.416432861328126,-0.20846223831176758,-0.0198211669921875,0.07918167114257812
1731409977256239400,9.4262392578125,-0.2550187110900879,-0.0037636756896972656,0.08040285110473633
1731409977266045000,9.436044921875,-0.2133316993713379,-0.0023016929626464844,0.028269290924072266
1731409977275849700,9.445849609375,-0.19303417205810547,0.015479564666748047,-0.019760608673095703
1731409977285655600,9.455655517578125,-0.18725013732910156,0.03969001770019531,-0.054743289947509766
1731409977295462000,9.4654619140625,-0.20047616958618164,0.06309175491333008,-0.07918405532836914
1731409977305267500,9.475267333984375,-0.20618772506713867,0.05533170700073242,-0.07202911376953125
1731409977315072300,9.485072265625,-0.1925492286682129,0.04983806610107422,-0.03347063064575195
1731409977324878000,9.494878173828125,-0.16636419296264648,0.06345748901367188,-0.020396709442138672
1731409977334684400,9.504684326171875,-0.13968133926391602,0.06783866882324219,-0.025763988494873047
1731409977344490200,9.514490234375,-0.0870671272277832,0.08413887023925781,-0.04251289367675781
1731409977354295000,9.524294921875,-0.022960662841796875,0.09340715408325195,-0.04688453674316406
1731409977364100600,9.5341005859375,0.10457324981689453,0.06541061401367188,-0.05081653594970703
1731409977373907000,9.543906982421875,0.04312276840209961,-0.01056051254272461,-0.0542902946472168
1731409977383712800,9.553712646484374,0.05576610565185547,-0.09192419052124023,-0.08412790298461914
1731409977393517600,9.563517578125,0.14434432983398438,-0.1523756980895996,-0.0593876838684082
1731409977403323100,9.5733232421875,0.10262775421142578,-0.22527122497558594,-0.04937314987182617
1731409977413129700,9.583129638671876,0.02308511734008789,-0.2919330596923828,-0.13535022735595703
1731409977422935300,9.592935302734375,0.0355677604675293,-0.3125314712524414,-0.14643239974975586
1731409977432740000,9.602739990234374,0.07574987411499023,-0.21733522415161133,-0.0731959342956543
1731409977442545700,9.612545654296875,0.053340911865234375,-0.12405109405517578,-0.008686542510986328
1731409977452352300,9.622352294921875,-0.08753824234008789,-0.09412336349487305,0.004730701446533203
1731409977462157800,9.63215771484375,-0.1324152946472168,-0.07924079895019531,0.03203630447387695
1731409977471962600,9.641962646484375,-0.15351629257202148,-0.017847537994384766,0.07519292831420898
1731409977481768200,9.651768310546874,-0.1962275505065918,0.055991172790527344,0.07997560501098633
1731409977491574800,9.66157470703125,-0.23857450485229492,0.09725618362426758,0.04773712158203125
1731409977501380400,9.67138037109375,-0.20258474349975586,0.12312173843383789,0.009849071502685547
1731409977511185200,9.68118505859375,-0.12924575805664062,0.1363515853881836,-0.05456733703613281
1731409977520991000,9.690990966796875,-0.0568242073059082,0.13281679153442383,-0.09149026870727539
1731409977530797300,9.70079736328125,0.007973194122314453,0.1295299530029297,-0.1389904022216797
1731409977540603000,9.710602783203125,0.05359649658203125,0.13375282287597656,-0.18767690658569336
1731409977550407700,9.72040771484375,0.049809932708740234,0.13123464584350586,-0.1856708526611328
1731409977560213500,9.730213623046875,0.0729522705078125,0.14329290390014648,-0.17362070083618164
1731409977570019800,9.740019775390625,0.09149742126464844,0.0987391471862793,-0.14710569381713867
1731409977579825400,9.749825439453126,0.11229181289672852,0.06418561935424805,-0.106353759765625
1731409977589630200,9.759630126953125,0.13765239715576172,0.05604267120361328,-0.06588983535766602
1731409977599436000,9.76943603515625,0.12246370315551758,0.054903507232666016,-0.07299375534057617
1731409977609242400,9.779242431640625,0.10482549667358398,0.022781848907470703,-0.15041446685791016
1731409977619048000,9.7890478515625,0.12494659423828125,-0.011309146881103516,-0.19830822944641113
1731409977628852700,9.798852783203126,0.19394969940185547,-0.05653953552246094,-0.20577669143676758
1731409977638658600,9.808658447265625,0.2095808982849121,-0.05850982666015625,-0.15977263450622559
1731409977648465000,9.81846484375,0.1227579116821289,-0.09813833236694336,-0.17467427253723145
1731409977658270700,9.828270751953125,0.09524393081665039,-0.08521127700805664,-0.15791058540344238
1731409977668075500,9.838075439453124,0.03884744644165039,-0.011535167694091797,-0.11427116394042969
1731409977677881000,9.847881103515626,-0.010199546813964844,0.058168888092041016,-0.06218767166137695
1731409977687687400,9.8576875,0.0215606689453125,0.09855890274047852,-0.027682781219482422
1731409977697493200,9.8674931640625,-0.0035495758056640625,0.11717748641967773,-0.01956939697265625
1731409977707298000,9.877298095703125,0.0028977394104003906,0.10307645797729492,-0.03766679763793945
1731409977717103600,9.887103515625,0.03815412521362305,0.0898275375366211,-0.06028318405151367
1731409977726910200,9.89691015625,0.033434391021728516,0.09137487411499023,-0.056508541107177734
1731409977736715800,9.9067158203125,0.022297382354736328,0.09090805053710938,-0.057335853576660156
1731409977746520600,9.9165205078125,0.05422639846801758,0.08847761154174805,-0.06280660629272461
1731409977756326100,9.926326171875,0.06717729568481445,0.09791421890258789,-0.04890775680541992
1731409977766132700,9.9361328125,0.08744668960571289,0.06974554061889648,-0.06320953369140625
1731409977775938300,9.945938232421875,0.12885713577270508,0.04690742492675781,-0.08654165267944336
1731409977785743000,9.9557431640625,0.17917537689208984,0.008237838745117188,-0.0814366340637207
1731409977795548700,9.965548583984376,0.24786806106567383,-0.03878450393676758,-0.10485267639160156
1731409977805355300,9.975355224609375,0.32980918884277344,-0.030294418334960938,-0.10024619102478027
1731409977815160800,9.985160888671874,0.3042917251586914,0.0020074844360351562,-0.08956766128540039
1731409977824965600,9.994965576171875,0.2551121711730957,0.003281116485595703,-0.09885048866271973
1731409977834771200,10.004771240234374,0.19172191619873047,-0.03090190887451172,-0.08783674240112305
1731409977844577800,10.014577880859376,0.1170344352722168,-0.031659603118896484,-0.07292699813842773
1731409977854383400,10.02438330078125,0.12987327575683594,-0.027944087982177734,-0.021314620971679688
1731409977864188200,10.034188232421876,0.14397811889648438,-0.03155088424682617,0.028574466705322266
1731409977873994000,10.043993896484375,0.11942005157470703,-0.0069599151611328125,0.05324411392211914
1731409977883800300,10.05380029296875,0.10858345031738281,0.02181720733642578,0.04834127426147461
1731409977893606000,10.06360595703125,0.0569610595703125,0.05224275588989258,0.07087898254394531
1731409977903410700,10.07341064453125,0.01960277557373047,0.09602785110473633,0.12076330184936523
1731409977913216500,10.083216552734376,-0.0101776123046875,0.12957525253295898,0.1580796241760254
1731409977923022800,10.09302294921875,-0.015427589416503906,0.16255426406860352,0.16958856582641602
1731409977932828400,10.102828369140624,-0.01496124267578125,0.15526103973388672,0.08043956756591797
1731409977942633200,10.11263330078125,0.01942920684814453,0.12720012664794922,0.02420949935913086
1731409977952439000,10.12243896484375,0.04429960250854492,0.18177461624145508,0.08529424667358398
1731409977962245400,10.132245361328126,0.09760665893554688,0.1551833152770996,0.1135721206665039
1731409977972051000,10.142051025390625,0.0989689826965332,0.11255598068237305,0.1070561408996582
1731409977981855700,10.151855712890624,0.0914468765258789,0.07998991012573242,0.1321101188659668
1731409977991661600,10.16166162109375,0.08436059951782227,0.0785527229309082,0.13835811614990234
1731409978001468000,10.171468017578125,0.03580284118652344,0.06796789169311523,0.10983133316040039
1731409978011273700,10.181273681640626,-0.025676250457763672,0.0318603515625,0.08433198928833008
1731409978021078500,10.19107861328125,-0.050801753997802734,-0.01773834228515625,0.040390968322753906
1731409978030884000,10.200884033203126,-0.014595508575439453,-0.05253267288208008,0.020577430725097656
1731409978040690400,10.2106904296875,0.0750889778137207,-0.04195213317871094,0.02679300308227539
1731409978050496300,10.220496337890625,-0.03391599655151367,-0.05951833724975586,0.06378984451293945
1731409978060301000,10.230301025390625,-0.05956220626831055,-0.07035446166992188,0.06240272521972656
1731409978070106600,10.240106689453125,0.008894920349121094,-0.07679557800292969,0.06591033935546875
1731409978079913200,10.249913330078124,-0.08655643463134766,-0.07177066802978516,0.06254339218139648
1731409978089718800,10.25971875,-0.1913776397705078,-0.10061025619506836,-0.019145965576171875
1731409978099523600,10.269523681640624,-0.14037179946899414,-0.09893989562988281,-0.0531620979309082
1731409978109329200,10.2793291015625,-0.04063081741333008,-0.026671886444091797,0.003047466278076172
1731409978119135500,10.289135498046875,-0.010593891143798828,0.05362701416015625,0.07305335998535156
1731409978128941300,10.29894140625,-0.0731358528137207,0.0803670883178711,0.05279731750488281
1731409978138746000,10.30874609375,-0.026311874389648438,0.07131624221801758,0.000021457672119140625
1731409978148551700,10.3185517578125,0.053066253662109375,0.06979036331176758,-0.009512901306152344
1731409978158358300,10.328358154296875,0.03553628921508789,0.031064510345458984,-0.03485441207885742
1731409978168163800,10.338163818359375,0.047618865966796875,0.05474996566772461,0.025472164154052734
1731409978177968600,10.34796875,0.031842708587646484,0.10648775100708008,0.06406736373901367
1731409978187774200,10.357774169921875,-0.025782108306884766,0.13851213455200195,0.09769105911254883
1731409978197580800,10.367580810546874,-0.08456897735595703,0.13460588455200195,0.10059547424316406
1731409978207386400,10.377386474609375,-0.11162137985229492,0.09540319442749023,0.09431600570678711
1731409978217191200,10.387191162109374,-0.07884073257446289,0.09698963165283203,0.08629655838012695
1731409978226996700,10.396996826171875,-0.053090572357177734,0.05158281326293945,0.07663393020629883
1731409978236803300,10.40680322265625,-0.015535354614257812,-0.002105712890625,0.041220664978027344
1731409978246609000,10.41660888671875,-0.032289981842041016,0.0019316673278808594,0.018233776092529297
1731409978256413700,10.42641357421875,-0.04622983932495117,0.022449970245361328,-0.013656139373779297
1731409978266219300,10.43621923828125,-0.06927013397216797,0.019202232360839844,-0.04038715362548828
1731409978276025900,10.44602587890625,-0.12017536163330078,-0.009783744812011719,-0.059775352478027344
1731409978285831400,10.45583154296875,-0.12034940719604492,-0.04745197296142578,-0.07395219802856445
1731409978295636200,10.46563623046875,-0.08917665481567383,-0.048879146575927734,-0.06856775283813477
1731409978305441800,10.47544189453125,-0.020200729370117188,-0.0594630241394043,-0.08161354064941406
1731409978315248400,10.485248291015624,-0.013273239135742188,-0.07674598693847656,-0.05901288986206055
1731409978325054000,10.495053955078125,-0.08492422103881836,-0.1270589828491211,-0.110198974609375
1731409978334858800,10.504858642578125,-0.052506446838378906,-0.15091562271118164,-0.12334442138671875
1731409978344664300,10.514664306640626,-0.0727701187133789,-0.10183525085449219,-0.100677490234375
1731409978354471000,10.524470947265625,-0.052616119384765625,-0.08900022506713867,-0.11812734603881836
1731409978364276500,10.5342763671875,-0.007052421569824219,-0.08108806610107422,-0.1354830265045166
1731409978374081300,10.544081298828125,-0.023542404174804688,-0.09210729598999023,-0.14565205574035645
1731409978383886800,10.553886962890624,-0.04237508773803711,-0.07448244094848633,-0.1375269889831543
1731409978393693400,10.563693359375,-0.06563663482666016,-0.049910545349121094,-0.11104798316955566
1731409978403499000,10.5734990234375,-0.0883331298828125,-0.05148029327392578,-0.1156468391418457
1731409978413303800,10.5833037109375,-0.09894943237304688,-0.048300743103027344,-0.11557459831237793
1731409978423109400,10.593109375,-0.07903289794921875,-0.059352874755859375,-0.11339497566223145
1731409978432916000,10.602916015625,-0.040766239166259766,-0.030397891998291016,-0.11111807823181152
1731409978442721500,10.612721435546876,-0.010269641876220703,-0.004315853118896484,-0.13245248794555664
1731409978452526300,10.6225263671875,0.03855085372924805,0.007303714752197266,-0.12299060821533203
1731409978462332000,10.632331787109376,0.055773258209228516,-0.007135868072509766,-0.12340116500854492
1731409978472138500,10.642138427734375,0.058568477630615234,-0.021268367767333984,-0.10981202125549316
1731409978481944000,10.651944091796874,0.0685429573059082,-0.030275821685791016,-0.05415630340576172
1731409978491748900,10.661748779296875,0.062117576599121094,-0.022454261779785156,-0.04415702819824219
1731409978501554400,10.671554443359375,0.051029205322265625,-0.02637195587158203,-0.051167964935302734
1731409978511361000,10.681361083984376,0.033097267150878906,-0.02770709991455078,-0.06771016120910645
1731409978521166600,10.69116650390625,0.04186582565307617,-0.04286050796508789,-0.05315685272216797
1731409978530971400,10.700971435546874,0.006086826324462891,-0.05269050598144531,-0.06019711494445801
1731409978540777000,10.71077685546875,-0.048073768615722656,-0.06456804275512695,-0.08404541015625
1731409978550583600,10.72058349609375,-0.08964395523071289,-0.043210506439208984,-0.07242941856384277
1731409978560389000,10.73038916015625,-0.11680793762207031,-0.015430927276611328,-0.0493168830871582
1731409978570194000,10.74019384765625,-0.15587854385375977,0.01840496063232422,-0.033538818359375
1731409978579999500,10.74999951171875,-0.1761484146118164,0.037056922912597656,-0.03460407257080078
1731409978589806000,10.75980615234375,-0.1825089454650879,0.047809600830078125,-0.02846050262451172
1731409978599611600,10.769611572265624,-0.1300520896911621,0.051084041595458984,-0.03162527084350586
1731409978609416400,10.77941650390625,-0.09517383575439453,0.028006553649902344,-0.06967568397521973
1731409978619222000,10.789221923828125,-0.04728364944458008,0.02145099639892578,-0.05545353889465332
1731409978629028600,10.799028564453126,0.003949642181396484,0.016901493072509766,-0.06501507759094238
1731409978638834200,10.808834228515625,0.03707075119018555,0.044890403747558594,-0.10525798797607422
1731409978648639000,10.818638916015624,0.06886148452758789,0.07187271118164062,-0.1073148250579834
1731409978658444500,10.828444580078125,0.09247922897338867,0.07447481155395508,-0.10947299003601074
1731409978668251100,10.838251220703125,0.11087465286254883,0.04402017593383789,-0.12578749656677246
1731409978678056700,10.848056640625,0.1308913230895996,0.020902156829833984,-0.12788796424865723
1731409978687861500,10.857861572265625,0.19235897064208984,-0.032469749450683594,-0.1354203224182129
1731409978697667000,10.8676669921875,0.2168283462524414,-0.04988288879394531,-0.13625359535217285
1731409978707473700,10.8774736328125,0.2665729522705078,-0.015106678009033203,-0.11400389671325684
1731409978717279200,10.887279296875,0.15511751174926758,-0.018335342407226562,-0.10705304145812988
1731409978727084000,10.897083984375,0.17417192459106445,-0.01674032211303711,-0.07792401313781738
1731409978736889600,10.9068896484375,0.19305849075317383,0.020436763763427734,0.01870107650756836
1731409978746696200,10.9166962890625,0.05611705780029297,0.02651691436767578,0.037994384765625
1731409978756501800,10.926501708984375,-0.046570777893066406,0.020610332489013672,-0.012454032897949219
1731409978766306600,10.936306640625,-0.053906917572021484,0.05494499206542969,0.028833866119384766
1731409978776112000,10.946112060546875,0.012561798095703125,0.11977005004882812,0.09552955627441406
1731409978785918700,10.955918701171875,0.05771017074584961,0.13937854766845703,0.1473217010498047
1731409978795724300,10.965724365234376,0.008916378021240234,0.11221694946289062,0.11374950408935547
1731409978805529000,10.975529052734375,0.03998374938964844,0.06065511703491211,0.06667613983154297
1731409978815334700,10.985334716796874,0.08640146255493164,0.02293252944946289,0.0677642822265625
1731409978825141200,10.995141357421875,0.08915376663208008,0.01284646987915039,0.06942415237426758
1731409978834946800,11.00494677734375,0.1054840087890625,-0.01961660385131836,0.060088157653808594
1731409978844751600,11.014751708984376,0.14874029159545898,-0.013005733489990234,0.05824995040893555
1731409978854557200,11.02455712890625,0.08115577697753906,0.005677700042724609,0.04939746856689453
1731409978864363800,11.03436376953125,-0.023035049438476562,0.028728485107421875,0.03830766677856445
1731409978874169300,11.04416943359375,-0.0904083251953125,0.043883323669433594,0.0749521255493164
1731409978883974100,11.05397412109375,-0.1287221908569336,0.04890298843383789,0.07840824127197266
1731409978893779700,11.06377978515625,-0.13150978088378906,0.04868173599243164,0.06788253784179688
1731409978903586300,11.07358642578125,-0.13475751876831055,0.04809284210205078,0.04571342468261719
1731409978913391900,11.083391845703124,-0.131561279296875,0.042398929595947266,0.011929512023925781
1731409978923196700,11.09319677734375,-0.1265711784362793,0.05526113510131836,0.011619091033935547
1731409978933002200,11.103002197265624,-0.12454509735107422,0.060196876525878906,0.023481369018554688
1731409978942808800,11.112808837890626,-0.13703012466430664,0.038468360900878906,0.014649391174316406
1731409978952614400,11.122614501953125,-0.10720491409301758,0.01407766342163086,-0.00974273681640625
1731409978962419200,11.132419189453126,-0.04057931900024414,0.0482783317565918,0.028122425079345703
1731409978972224800,11.142224853515625,0.015290260314941406,0.06728076934814453,0.10828065872192383
1731409978982031400,11.15203125,-0.06158113479614258,0.0011529922485351562,0.10719966888427734
1731409978991837000,11.1618369140625,-0.0828399658203125,-0.077880859375,0.03085470199584961
1731409979001641700,11.171641845703125,-0.07528495788574219,-0.08489227294921875,-0.020530223846435547
1731409979011447300,11.181447265625,-0.10522270202636719,-0.05658864974975586,-0.02337026596069336
1731409979021254000,11.19125390625,-0.07296466827392578,-0.03341484069824219,0.00030612945556640625
1731409979031059500,11.2010595703125,-0.10261774063110352,-0.06004905700683594,-0.026097774505615234
1731409979040864300,11.2108642578125,-0.13408136367797852,-0.10728025436401367,-0.06401681900024414
1731409979050670000,11.220670166015625,-0.12259531021118164,-0.12758350372314453,-0.02160930633544922
1731409979060476400,11.230476318359376,-0.13260555267333984,-0.12384700775146484,0.014951229095458984
1731409979070282000,11.240281982421875,-0.1754622459411621,-0.10138988494873047,0.04149818420410156
1731409979080086800,11.250086669921876,-0.23181819915771484,-0.09114646911621094,0.032286643981933594
1731409979089892400,11.259892333984375,-0.23085784912109375,-0.07188987731933594,0.04935312271118164
1731409979099699000,11.269698974609375,-0.18317937850952148,-0.03682088851928711,0.028583049774169922
1731409979109504500,11.27950439453125,-0.1887979507446289,-0.010070323944091797,0.031882286071777344
1731409979119309300,11.289309326171875,-0.17382478713989258,-0.0031890869140625,0.011652469635009766
1731409979129115100,11.299115234375,-0.1333022117614746,0.00809335708618164,0.02962779998779297
1731409979138921500,11.30892138671875,-0.11645174026489258,0.014537334442138672,0.05972099304199219
1731409979148727000,11.31872705078125,-0.10401058197021484,0.02104663848876953,0.035665035247802734
1731409979158531800,11.32853173828125,-0.07232809066772461,-0.019397258758544922,-0.01580810546875
1731409979168337700,11.338337646484375,-0.07112741470336914,-0.05165386199951172,-0.06395101547241211
1731409979178144000,11.34814404296875,-0.053375244140625,-0.06672191619873047,-0.11851716041564941
1731409979187949600,11.357949462890625,-0.09523868560791016,-0.06512117385864258,-0.11620092391967773
1731409979197754400,11.36775439453125,-0.15346765518188477,-0.0332331657409668,-0.11186552047729492
1731409979207560200,11.377560302734375,-0.1735668182373047,-0.03996610641479492,-0.09579682350158691
1731409979217366500,11.387366455078125,-0.1536393165588379,-0.04920196533203125,-0.09176516532897949
1731409979227172000,11.397172119140626,-0.13188791275024414,-0.034935951232910156,-0.1065666675567627
1731409979236977000,11.406976806640625,-0.1272721290588379,-0.035132408142089844,-0.11193561553955078
1731409979246782700,11.41678271484375,-0.09251880645751953,-0.03787517547607422,-0.10799312591552734
1731409979256589000,11.426589111328125,-0.09382200241088867,-0.03820323944091797,-0.08788347244262695
1731409979266394600,11.43639453125,0.020465850830078125,-0.03318023681640625,-0.10187721252441406
1731409979276199400,11.446199462890625,0.010931968688964844,-0.0395660400390625,-0.08040452003479004
1731409979286005200,11.456005126953125,-0.009428024291992188,-0.11112737655639648,-0.14170432090759277
1731409979295811600,11.4658115234375,0.027814865112304688,-0.12648725509643555,-0.11061882972717285
1731409979305617200,11.4756171875,-0.012656688690185547,-0.15498590469360352,-0.12287712097167969
1731409979315422000,11.485421875,-0.07374906539916992,-0.15906763076782227,-0.13106942176818848
1731409979325227800,11.495227783203125,-0.10364627838134766,-0.16767215728759766,-0.15169429779052734
1731409979335034000,11.5050341796875,-0.11268854141235352,-0.10107660293579102,-0.10672402381896973
1731409979344840000,11.51483984375,-0.07016658782958984,-0.04995870590209961,-0.04141855239868164
1731409979354644500,11.52464453125,-0.013598918914794922,-0.0017061233520507812,-0.005172252655029297
1731409979364450300,11.5344501953125,-0.0543665885925293,-0.026981353759765625,-0.023941993713378906
1731409979374256600,11.544256591796875,-0.012664794921875,-0.0309295654296875,0.009046077728271484
1731409979384062500,11.5540625,-0.04208183288574219,0.021669864654541016,0.06298494338989258
1731409979393867300,11.5638671875,-0.1846632957458496,-0.016516685485839844,-0.022988319396972656
1731409979403672800,11.5736728515625,-0.16644573211669922,-0.07361936569213867,-0.1062173843383789
1731409979413479200,11.583479248046874,-0.1260700225830078,-0.092529296875,-0.12994980812072754
1731409979423285000,11.593284912109375,0.007791042327880859,-0.08061981201171875,-0.1036841869354248
1731409979433089800,11.60308984375,0.02126026153564453,-0.0364375114440918,-0.03995513916015625
1731409979442895400,11.612895263671875,0.015292644500732422,-0.04285621643066406,-0.05945444107055664
1731409979452702000,11.622701904296875,0.03301525115966797,0.0000591278076171875,-0.02403879165649414
1731409979462507500,11.632507568359374,0.058005332946777344,0.004776477813720703,0.006455421447753906
1731409979472312300,11.642312255859375,0.045495033264160156,-0.02079629898071289,-0.017577171325683594
1731409979482118000,11.652117919921874,0.035773277282714844,-0.024493694305419922,-0.03192901611328125
1731409979491924500,11.661924560546876,0.011898994445800781,-0.00936269760131836,-0.020282268524169922
1731409979501730000,11.67172998046875,0.03319072723388672,-0.008656978607177734,0.007791996002197266
1731409979511534800,11.681534912109376,0.07828998565673828,0.020601749420166016,0.06160259246826172
1731409979521340400,11.69134033203125,0.13024663925170898,0.035594940185546875,0.06993389129638672
1731409979531147000,11.70114697265625,0.11068439483642578,0.050473690032958984,0.01194620132446289
1731409979540952600,11.71095263671875,0.10767269134521484,0.03937339782714844,-0.012738704681396484
1731409979550757400,11.72075732421875,0.08607769012451172,0.06872749328613281,-0.011264801025390625
1731409979560563000,11.73056298828125,0.07714700698852539,0.08402156829833984,0.015848636627197266
1731409979570369500,11.74036962890625,0.04053068161010742,0.08771467208862305,0.042342185974121094
1731409979580175000,11.750175048828124,0.01880168914794922,0.13382339477539062,0.1037440299987793
1731409979589980000,11.75997998046875,0.023462772369384766,0.16496038436889648,0.12206125259399414
1731409979599785500,11.769785400390624,0.07053089141845703,0.16236448287963867,0.12653875350952148
1731409979609592000,11.779592041015626,0.18350887298583984,0.1459484100341797,0.1621379852294922
1731409979619397600,11.789397705078125,0.10680389404296875,0.08293390274047852,0.16218185424804688
1731409979629202400,11.799202392578126,0.09940528869628906,0.011457443237304688,0.08908843994140625
1731409979639008300,11.80900830078125,0.12496185302734375,0.021346569061279297,0.07097148895263672
1731409979648814600,11.818814697265625,0.13363361358642578,0.06646490097045898,0.07658815383911133
1731409979658620200,11.8286201171875,0.156951904296875,0.08314847946166992,0.08202791213989258
1731409979668425000,11.838425048828125,0.08193683624267578,0.06003236770629883,0.0359649658203125
1731409979678230800,11.848230712890626,0.043984413146972656,0.05176591873168945,0.023712158203125
1731409979688037000,11.858037109375,0.06850481033325195,-0.005396842956542969,-0.009377002716064453
1731409979697843000,11.867843017578124,0.08835744857788086,-0.033066749572753906,0.00998067855834961
1731409979707647700,11.877647705078125,0.04895925521850586,-0.032204627990722656,0.04336404800415039
1731409979717453300,11.887453369140625,0.028820037841796875,-0.04319190979003906,0.014788150787353516
1731409979727259600,11.897259765625,-0.026563167572021484,-0.030679702758789062,0.014976024627685547
1731409979737065500,11.9070654296875,-0.05066967010498047,0.01428985595703125,0.008264541625976562
1731409979746870300,11.916870361328124,-0.07011651992797852,0.02021169662475586,0.06099987030029297
1731409979756675800,11.92667578125,-0.058653831481933594,0.004519462585449219,0.05452728271484375
1731409979766482400,11.936482421875,-0.005007266998291016,-0.03224515914916992,-0.015151500701904297
1731409979776288000,11.9462880859375,-0.002056121826171875,0.018283367156982422,0.013092994689941406
1731409979786092800,11.9560927734375,0.033392906188964844,0.015754222869873047,-0.01310586929321289
1731409979795898400,11.9658984375,0.05629873275756836,-0.0010704994201660156,-0.03168535232543945
1731409979805705000,11.975705078125,0.050028324127197266,-0.0225677490234375,-0.07144737243652344
1731409979815510500,11.985510498046875,0.0314793586730957,-0.032258033752441406,-0.044887542724609375
1731409979825315300,11.9953154296875,-0.00116729736328125,-0.016149520874023438,0.018962860107421875
1731409979835121000,12.005120849609375,-0.005220890045166016,0.008765220642089844,0.027916908264160156
1731409979844927500,12.014927490234374,-0.00015401840209960938,0.009593009948730469,0.022338390350341797
1731409979854733000,12.024733154296875,-0.07985782623291016,0.010539054870605469,-0.018596649169921875
1731409979864537900,12.034537841796874,-0.08086252212524414,0.09570169448852539,0.07109355926513672
1731409979874343700,12.04434375,-0.04944133758544922,0.10592842102050781,0.09120321273803711
1731409979884150000,12.05414990234375,-0.051488399505615234,0.09949064254760742,0.09925508499145508
1731409979893955600,12.06395556640625,-0.059955596923828125,0.07676029205322266,0.06310892105102539
1731409979903760400,12.073760498046875,-0.020770549774169922,0.07551336288452148,0.06828975677490234
1731409979913566200,12.083566162109374,0.011445045471191406,0.06270694732666016,0.06697893142700195
1731409979923372500,12.09337255859375,-0.034015655517578125,0.059721946716308594,0.030776500701904297
1731409979933178400,12.103178466796875,-0.0712580680847168,0.04521036148071289,0.00008058547973632812
1731409979942983200,12.112983154296876,-0.04877805709838867,0.02397775650024414,-0.04878091812133789
1731409979952788700,12.122788818359375,0.014005661010742188,0.015245914459228516,-0.04009819030761719
1731409979962595300,12.13259521484375,0.011528968811035156,0.014335155487060547,-0.006818294525146484
1731409979972401000,12.14240087890625,-0.0541229248046875,-0.04767131805419922,-0.0044002532958984375
