time,seconds_elapsed,z,y,x
1731409967980174600,0.150174560546875,-0.14064757525920868,0.15271180868148804,0.5329642295837402
1731409967989980200,0.159980224609375,-0.150421142578125,0.15393351018428802,0.5573981404304504
1731409967999786500,0.169786376953125,-0.15530791878700256,0.16126367449760437,0.564728319644928
1731409968009591800,0.179591796875,-0.14797775447368622,0.130721315741539,0.564728319644928
1731409968019396600,0.189396728515625,-0.11865708231925964,0.07696675509214401,0.5488462448120117
1731409968029202200,0.1992021484375,-0.06490252166986465,0.014660334214568138,0.5183038711547852
1731409968039008500,0.209008544921875,0.025502873584628105,-0.023212196305394173,0.48898324370384216
1731409968048813800,0.218813720703125,0.10613471269607544,0.009773556143045425,0.45111069083213806
1731409968058618600,0.22861865234375,0.1366770714521408,0.08307522535324097,0.3949127495288849
1731409968068424200,0.238424072265625,0.1256818175315857,0.12094775587320328,0.3289412558078766
1731409968078230500,0.24823046875,0.10002623498439789,0.09407047927379608,0.27152159810066223
1731409968088035800,0.258035888671875,0.07437065243721008,0.03665083646774292,0.23242738842964172
1731409968097840600,0.267840576171875,0.0584886260330677,-0.021990500390529633,0.21165858209133148
1731409968107646200,0.277646240234375,0.05238015204668045,-0.12094775587320328,0.2079934924840927
1731409968117452500,0.28745263671875,0.062153708189725876,-0.237008735537529,0.2226538211107254
1731409968127258000,0.297258056640625,0.08658760040998459,-0.3274141252040863,0.2483094036579132
1731409968137062700,0.307062744140625,0.1122431829571724,-0.39827242493629456,0.28496024012565613
1731409968146868200,0.3168681640625,0.1256818175315857,-0.416597843170166,0.31916770339012146
1731409968156674600,0.326674560546875,0.11835165321826935,-0.44103172421455383,0.3277195692062378
1731409968166480100,0.336480224609375,0.0853659063577652,-0.5216635465621948,0.3020639717578888
1731409968176284700,0.34628466796875,0.03771981969475746,-0.6157340407371521,0.25563958287239075
1731409968186090200,0.35609033203125,-0.006261184345930815,-0.6792621612548828,0.2104368805885315
1731409968195896600,0.365896484375,-0.03802524134516716,-0.6511631608009338,0.17745113372802734
1731409968205702100,0.3757021484375,-0.06001574173569679,-0.5302154421806335,0.13347013294696808
1731409968215506700,0.385506591796875,-0.07834116369485855,-0.367730051279068,0.06139015033841133
1731409968225312300,0.395312255859375,-0.0844496339559555,-0.2357870489358902,-0.01435491070151329
1731409968235118600,0.40511865234375,-0.08078455179929733,-0.20035789906978607,-0.06933116167783737
1731409968244924200,0.414924072265625,-0.08689302206039429,-0.237008735537529,-0.10964708030223846
1731409968254729000,0.42472900390625,-0.10888352245092392,-0.2736595869064331,-0.1438545286655426
1731409968264534300,0.4345341796875,-0.12965233623981476,-0.3298575282096863,-0.1682884246110916
1731409968274340600,0.444340576171875,-0.13942588865756989,-0.4202629029750824,-0.1695101112127304
1731409968284146200,0.454146240234375,-0.1382041871547699,-0.5008947253227234,-0.1438545286655426
1731409968293951000,0.463950927734375,-0.11987877637147903,-0.5558710098266602,-0.11209046840667725
1731409968303756500,0.473756591796875,-0.08689302206039429,-0.5448757410049438,-0.08521319180727005
1731409968313563000,0.48356298828125,-0.04413371533155441,-0.4703523814678192,-0.059557609260082245
1731409968323368200,0.4933681640625,-0.00015271181473508477,-0.3811686933040619,-0.042453885078430176
1731409968333173000,0.503173095703125,0.04749337583780289,-0.3139754831790924,-0.04734066128730774
1731409968342978600,0.512978515625,0.10002623498439789,-0.258999228477478,-0.08032641559839249
1731409968352785000,0.522784912109375,0.15744587779045105,-0.1820324808359146,-0.13774605095386505
1731409968362590200,0.532590087890625,0.241742804646492,-0.01954711228609085,-0.22937314212322235
1731409968372395000,0.54239501953125,0.3639122545719147,0.1698155403137207,-0.3393256664276123
1731409968382200600,0.55220068359375,0.4628695249557495,0.2223484069108963,-0.39796698093414307
1731409968392007000,0.5620068359375,0.49952033162117004,0.27854636311531067,-0.41018393635749817
1731409968401812200,0.571812255859375,0.46897798776626587,0.30664533376693726,-0.3833066523075104
1731409968411617000,0.581616943359375,0.39323291182518005,0.25655585527420044,-0.3136700689792633
1731409968421422600,0.591422607421875,0.31137940287590027,0.17714570462703705,-0.21226942539215088
1731409968431229000,0.60122900390625,0.22708246111869812,0.11972606182098389,-0.11086877435445786
1731409968441034200,0.6110341796875,0.14522893726825714,0.10873081535100937,-0.03512371703982353
1731409968450839000,0.620839111328125,0.07925742864608765,0.09773556143045425,0.007635590620338917
1731409968460644600,0.63064453125,0.029167955741286278,-0.01954711228609085,0.03817795217037201
1731409968470451000,0.640450927734375,0.0022906772792339325,-0.26632940769195557,0.08215895295143127
1731409968480256300,0.65025634765625,-0.01725643500685692,-0.5705313682556152,0.15179555118083954
1731409968490061000,0.66006103515625,-0.04046862944960594,-0.8710681796073914,0.2348707765340805
1731409968499866600,0.66986669921875,-0.06001574173569679,-1.138619303703308,0.3399364948272705
1731409968509673000,0.6796728515625,-0.051463883370161057,-1.3756279945373535,0.4706578254699707
1731409968519478500,0.689478515625,-0.013591351918876171,-1.6175235509872437,0.6074876189231873
1731409968529283000,0.699282958984375,0.05115845799446106,-1.7787872552871704,0.7015580534934998
1731409968539088600,0.709088623046875,0.14400723576545715,-1.8129947185516357,0.7675296068191528
1731409968548895000,0.71889501953125,0.2710634768009186,-1.822768211364746,0.8567132949829102
1731409968558700500,0.728700439453125,0.42133188247680664,-1.7983343601226807,0.9520054459571838
1731409968568505000,0.738505126953125,0.5654918551445007,-1.776343822479248,1.0607362985610962
1731409968578310700,0.748310546875,0.6632274389266968,-1.854532241821289,1.2391036748886108
1731409968588117000,0.758116943359375,0.7072083950042725,-1.9815884828567505,1.4504568576812744
1731409968597922600,0.767922607421875,0.7279772162437439,-2.1110880374908447,1.6789137125015259
1731409968607727000,0.77772705078125,0.7695148587226868,-2.1599559783935547,1.9330261945724487
1731409968617532700,0.78753271484375,0.8342646360397339,-2.1123099327087402,2.1969120502471924
1731409968627339000,0.797339111328125,0.8586985468864441,-2.0609986782073975,2.4779019355773926
1731409968637144600,0.80714453125,0.8367080092430115,-2.0878758430480957,2.756448268890381
1731409968646949000,0.81694921875,0.8293778896331787,-2.175837993621826,3.0351474285125732
1731409968656754700,0.826754638671875,0.8660287261009216,-2.250361204147339,3.35034441947937
1731409968666561000,0.83656103515625,0.9210049510002136,-2.2491395473480225,3.7192962169647217
1731409968676366600,0.84636669921875,0.9564340710639954,-2.126970052719116,4.110238552093506
1731409968686171400,0.85617138671875,0.8916842937469482,-1.8936264514923096,4.457199573516846
1731409968695976700,0.865976806640625,0.6998782753944397,-1.580872654914856,4.667331218719482
1731409968705783300,0.875783203125,0.4359922409057617,-1.248571753501892,4.663666248321533
1731409968715588600,0.885588623046875,0.217308908700943,-0.9223793745040894,4.529279708862305
1731409968725393400,0.895393310546875,0.12201674282550812,-0.5888567566871643,4.396114826202393
1731409968735199000,0.905198974609375,0.10857810080051422,-0.2980934679508209,4.280054092407227
1731409968745005300,0.91500537109375,0.11712995916604996,-0.11239589750766754,4.15788459777832
1731409968754810600,0.924810546875,0.11590826511383057,-0.0659715011715889,4.030828475952148
1731409968764615400,0.934615478515625,0.05726693198084831,-0.1966928243637085,3.8866684436798096
1731409968774421000,0.9444208984375,-0.05390727147459984,-0.4080459773540497,3.7302916049957275
1731409968784227300,0.954227294921875,-0.14186927676200867,-0.5436540842056274,3.587353229522705
1731409968794032600,0.96403271484375,-0.1772984117269516,-0.6633801460266113,3.448080062866211
1731409968803837400,0.97383740234375,-0.15652960538864136,-0.818535327911377,3.363783121109009
1731409968813643000,0.98364306640625,-0.09300149232149124,-0.9736905097961426,3.367448329925537
1731409968823449300,0.993449462890625,-0.023364907130599022,-1.1227372884750366,3.4004340171813965
1731409968833254700,1.003254638671875,0.019394399598240852,-1.2229162454605103,3.4358630180358887
1731409968843059500,1.0130595703125,0.03405473381280899,-1.1752700805664062,3.5067214965820312
1731409968852865000,1.022864990234375,0.03649812191724777,-0.962695300579071,3.6093437671661377
1731409968862671400,1.03267138671875,0.08170082420110703,-0.6389462351799011,3.740065097808838
1731409968872476700,1.0424765625,0.20997874438762665,-0.17348061501979828,3.9758520126342773
1731409968882281500,1.052281494140625,0.38101598620414734,0.44103172421455383,4.332586765289307
1731409968892087000,1.062087158203125,0.5044071078300476,1.109298586845398,4.73696756362915
1731409968901893400,1.071893310546875,0.5215108394622803,1.7690136432647705,5.102254390716553
1731409968911699000,1.081698974609375,0.4286620616912842,2.3713090419769287,5.406456470489502
1731409968921503500,1.09150341796875,0.21975229680538177,2.880755662918091,5.614144325256348
1731409968931309000,1.10130908203125,-0.07956285774707794,3.280402421951294,5.6886677742004395
1731409968941115400,1.111115478515625,-0.39476004242897034,3.6432456970214844,5.671564102172852
1731409968950921000,1.1209208984375,-0.567018985748291,3.5858261585235596,-0.3918585181236267
1731409968960725800,1.130725830078125,0.0841442123055458,6.797660827636719,-7.669798374176025
1731409968970531000,1.140531005859375,0.5789304971694946,5.406150817871094,-2.835400342941284
1731409968980337400,1.15033740234375,-0.13942588865756989,0.45202696323394775,0.06872031837701797
1731409968990143000,1.16014306640625,-0.28847262263298035,-1.5002409219741821,2.389939785003662
1731409968999947800,1.16994775390625,-0.44729289412498474,-2.354205369949341,3.149986505508423
1731409969009753000,1.179753173828125,-0.4485146105289459,-2.7000975608825684,2.9067165851593018
1731409969019559700,1.1895595703125,-0.31657159328460693,-2.5644896030426025,2.3361854553222656
1731409969029365000,1.199364990234375,-0.15408621728420258,-2.161177635192871,1.5860649347305298
1731409969039169800,1.209169677734375,-0.01847812905907631,-1.5307831764221191,0.749204158782959
1731409969048975400,1.218975341796875,0.06581879407167435,-0.8173136115074158,-0.08643488585948944
1731409969058781700,1.22878173828125,0.062153708189725876,-0.25411245226860046,-0.804791271686554
1731409969068587000,1.2385869140625,0.025502873584628105,0.07696675509214401,-1.2910256385803223
1731409969078391800,1.248391845703125,-0.01969982497394085,0.12827792763710022,-1.5854541063308716
1731409969088197400,1.258197265625,-0.06001574173569679,-0.07452336698770523,-1.7516045570373535
1731409969098003700,1.268003662109375,-0.08811471611261368,-0.4300364851951599,-1.8798824548721313
1731409969107809000,1.27780908203125,-0.08811471611261368,-0.7916580438613892,-2.0154905319213867
1731409969117613800,1.28761376953125,-0.047798797488212585,-1.0445488691329956,-2.1804192066192627
1731409969127419400,1.29741943359375,0.0022906772792339325,-1.1728267669677734,-2.363826274871826
1731409969137225700,1.307225830078125,0.03527642786502838,-1.248571753501892,-2.4859955310821533
1731409969147031300,1.31703125,0.042606595903635025,-1.3194301128387451,-2.446901321411133
1731409969156835800,1.3268359375,0.026724567636847496,-1.4086138010025024,-2.2720463275909424
1731409969166641400,1.336641357421875,0.004734066314995289,-1.5063493251800537,-2.0558063983917236
1731409969176447700,1.34644775390625,-0.016034740954637527,-1.6211886405944824,-1.8395664691925049
1731409969186253300,1.35625341796875,-0.04046862944960594,-1.692046880722046,-1.6208832263946533
1731409969196058000,1.36605810546875,-0.07834116369485855,-1.6798299551010132,-1.4278554916381836
1731409969205863400,1.375863525390625,-0.13453911244869232,-1.573542594909668,-1.2739219665527344
1731409969215669800,1.385669677734375,-0.20051060616970062,-1.3658545017242432,-1.1432006359100342
1731409969225475300,1.395475341796875,-0.2432699203491211,-1.0738694667816162,-1.0234745740890503
1731409969235280100,1.405280029296875,-0.254265159368515,-0.7537854909896851,-0.9013051390647888
1731409969245085400,1.41508544921875,-0.24937839806079865,-0.45447036623954773,-0.7400414347648621
1731409969254892000,1.42489208984375,-0.22616620361804962,-0.18569757044315338,-0.5152496695518494
1731409969264697300,1.434697265625,-0.18218518793582916,0.030542362481355667,-0.24159009754657745
1731409969274502100,1.444502197265625,-0.125987246632576,0.19913621246814728,0.06383354216814041
1731409969284307700,1.4543076171875,-0.07834116369485855,0.3555130958557129,0.37536564469337463
1731409969294114000,1.464114013671875,-0.045355409383773804,0.4947862923145294,0.6612421870231628
1731409969303919400,1.47391943359375,-0.01969982497394085,0.624285876750946,0.9092461466789246
1731409969313724200,1.48372412109375,0.021837789565324783,0.7476770281791687,1.1267077922821045
1731409969323529700,1.49352978515625,0.09636115282773972,0.8478559851646423,1.3062968254089355
1731409969333336000,1.503336181640625,0.18432316184043884,0.9223793745040894,1.4553436040878296
1731409969343141600,1.5131416015625,0.2698417901992798,0.9810206890106201,1.6031686067581177
1731409969352946200,1.5229462890625,0.3248180150985718,1.0298885107040405,1.7839794158935547
1731409969362751700,1.532751708984375,0.29916244745254517,1.1117420196533203,1.9855589866638184
1731409969372558000,1.54255810546875,0.18798823654651642,1.266897201538086,2.184695243835449
1731409969382363600,1.55236376953125,0.05115845799446106,1.5210096836090088,2.3765013217926025
1731409969392168400,1.56216845703125,-0.06734590977430344,1.8276549577713013,2.5438733100891113
1731409969401973800,1.571973876953125,-0.15408621728420258,2.1196398735046387,2.696585178375244
1731409969411780400,1.5817802734375,-0.1895153671503067,2.366422176361084,2.8773961067199707
1731409969421585700,1.591585693359375,-0.17485502362251282,2.632751703262329,3.153651714324951
1731409969431390500,1.601390380859375,-0.05757235363125801,3.466099977493286,3.0424773693084717
1731409969441196000,1.611196044921875,0.14156384766101837,2.1538474559783936,-2.6399290561676025
1731409969451002400,1.62100244140625,0.3480302393436432,2.9383280277252197,-2.551967144012451
1731409969460807700,1.6308076171875,0.14645062386989594,0.9553651213645935,-0.564117431640625
1731409969470612500,1.640612548828125,-0.21028417348861694,-0.6829272508621216,0.6502469182014465
1731409969480418000,1.65041796875,-0.4790569543838501,-1.8899613618850708,1.1633585691452026
1731409969490224400,1.660224365234375,-0.5731274485588074,-2.7721774578094482,0.9898779988288879
1731409969500030000,1.670030029296875,-0.45828816294670105,-3.086153030395508,0.6160394549369812
1731409969509834500,1.67983447265625,-0.21028417348861694,-2.869913101196289,0.17378604412078857
1731409969519640000,1.68964013671875,0.01695101149380207,-2.2552480697631836,-0.31855684518814087
1731409969529446400,1.6994462890625,0.12201674282550812,-1.456259846687317,-0.8524373769760132
1731409969539252000,1.709251953125,0.09391776472330093,-0.767224133014679,-1.3765443563461304
1731409969549056500,1.719056396484375,-0.016034740954637527,-0.3921639323234558,-1.8249062299728394
1731409969558862000,1.728862060546875,-0.14186927676200867,-0.3408527672290802,-2.1388816833496094
1731409969568668700,1.738668701171875,-0.23349636793136597,-0.546097457408905,-2.276933193206787
1731409969578474000,1.748473876953125,-0.2689255177974701,-0.9089407324790955,-2.2830417156219482
1731409969588278800,1.75827880859375,-0.2518217861652374,-1.2681188583374023,-2.20729660987854
1731409969598084400,1.76808447265625,-0.20051060616970062,-1.484358787536621,-2.0924572944641113
1731409969607890700,1.777890625,-0.14797775447368622,-1.5063493251800537,-1.9959434270858765
1731409969617696000,1.787696044921875,-0.10521844029426575,-1.368297815322876,-1.938523769378662
1731409969627500800,1.797500732421875,-0.08933641016483307,-1.1178505420684814,-1.885990858078003
1731409969637306400,1.807306396484375,-0.0856713280081749,-0.8087617754936218,-1.8102458715438843
1731409969647112700,1.81711279296875,-0.06368082761764526,-0.5131117105484009,-1.7064018249511719
1731409969656918300,1.826918212890625,-0.01725643500685692,-0.2858765125274658,-1.5451381206512451
1731409969666722800,1.836722900390625,0.029167955741286278,-0.16615045070648193,-1.31790292263031
1731409969676528400,1.8465283203125,0.05604523420333862,-0.16004198789596558,-1.0698989629745483
1731409969686334700,1.856334716796875,0.07314895838499069,-0.19913621246814728,-0.8145648241043091
1731409969696140300,1.866140380859375,0.09147437661886215,-0.18814095854759216,-0.5311316847801208
1731409969705945000,1.875945068359375,0.10246963053941727,-0.1172826737165451,-0.23914669454097748
1731409969715750700,1.885750732421875,0.12201674282550812,0.01710372418165207,0.0393996499478817
1731409969725557000,1.895556884765625,0.14645062386989594,0.1979145109653473,0.3167243003845215
1731409969735362300,1.9053623046875,0.16721943020820618,0.38849884271621704,0.5952706336975098
1731409969745167000,1.9151669921875,0.1892099380493164,0.5705313682556152,0.9006943106651306
1731409969754972700,1.92497265625,0.22341738641262054,0.7574505805969238,1.2818629741668701
1731409969764779000,1.934779052734375,0.27350685000419617,0.994459331035614,1.7265597581863403
1731409969774584600,1.94458447265625,0.3370349705219269,1.313321590423584,2.1920254230499268
1731409969784389000,1.95438916015625,0.3871244490146637,1.7250326871871948,2.6562693119049072
1731409969794194700,1.964194580078125,0.3981196880340576,2.180724620819092,3.0974538326263428
1731409969804001000,1.9740009765625,0.4005630910396576,2.603430986404419,3.5849099159240723
1731409969813806600,1.983806640625,0.44454410672187805,2.930997848510742,4.165214538574219
1731409969823611400,1.993611328125,0.50196373462677,3.1667850017547607,4.755293369293213
1731409969833417000,2.0034169921875,0.533727765083313,3.341487169265747,5.296504020690918
1731409969843223300,2.013223388671875,0.533727765083313,3.470986843109131,5.791290283203125
1731409969853028600,2.023028564453125,0.32726141810417175,1.4990191459655762,-1.4449591636657715
1731409969862833400,2.03283349609375,0.6339067220687866,5.3646135330200195,-6.768034934997559
1731409969872639000,2.042638916015625,0.7511894106864929,3.2242045402526855,-1.1651911735534668
1731409969882445300,2.0524453125,-0.28725093603134155,-0.416597843170166,1.229330062866211
1731409969892251000,2.0622509765625,-0.4411844313144684,-0.7183563709259033,2.2262327671051025
1731409969902055700,2.0720556640625,-0.4680617153644562,-0.8283088803291321,2.1627047061920166
1731409969911861000,2.081861083984375,-0.22372281551361084,-1.0836430788040161,1.5469707250595093
1731409969921667600,2.09166748046875,0.16966283321380615,-0.994459331035614,0.8176190853118896
1731409969931473000,2.101472900390625,0.4262186884880066,-0.5754181146621704,0.1053711548447609
1731409969941277700,2.111277587890625,0.4127800464630127,-0.046424392610788345,-0.45294323563575745
1731409969951083300,2.121083251953125,0.2038702666759491,0.3506263196468353,-0.7009472250938416
1731409969960889600,2.1308896484375,-0.03680354729294777,0.46546560525894165,-0.6459710001945496
1731409969970695200,2.140695068359375,-0.16874656081199646,0.3506263196468353,-0.40163207054138184
1731409969980499700,2.150499755859375,-0.16630317270755768,0.1979145109653473,-0.15973655879497528
1731409969990305300,2.16030517578125,-0.13087402284145355,0.0794101431965828,-0.03512371703982353
1731409970000111600,2.170111572265625,-0.11010521650314331,0.014660334214568138,-0.01435491070151329
1731409970009917200,2.179917236328125,-0.10155335813760757,0.01588202826678753,-0.058335911482572556
1731409970019722000,2.189721923828125,-0.10155335813760757,0.047646086663007736,-0.12308572232723236
1731409970029527600,2.199527587890625,-0.10277505218982697,0.11117420345544815,-0.17561858892440796
1731409970039334000,2.209333984375,-0.10521844029426575,0.18691925704479218,-0.2086043357849121
1731409970049139500,2.219139404296875,-0.10399674624204636,0.25411245226860046,-0.21349111199378967
1731409970058944000,2.228944091796875,-0.10888352245092392,0.29565006494522095,-0.18539214134216309
1731409970068749600,2.23874951171875,-0.11987877637147903,0.2993151545524597,-0.1426328420639038
1731409970078556000,2.248555908203125,-0.13209572434425354,0.27976804971694946,-0.09743013978004456
1731409970088361500,2.258361572265625,-0.14064757525920868,0.261442631483078,-0.0656660795211792
1731409970098166300,2.268166259765625,-0.14675605297088623,0.258999228477478,-0.05344913527369499
1731409970107971800,2.277971923828125,-0.15408621728420258,0.2748812735080719,-0.055892523378133774
1731409970117778200,2.287778076171875,-0.16874656081199646,0.29320669174194336,-0.059557609260082245
1731409970127583700,2.297583740234375,-0.17118994891643524,0.30786702036857605,-0.059557609260082245
1731409970137388300,2.30738818359375,-0.16996824741363525,0.30664533376693726,-0.05344913527369499
1731409970147193900,2.31719384765625,-0.1785201132297516,0.2870981991291046,-0.02901524491608143
1731409970157000200,2.327000244140625,-0.19562382996082306,0.25655585527420044,0.010078979656100273
1731409970166805800,2.3368056640625,-0.20784078538417816,0.237008735537529,0.028404397889971733
1731409970176610600,2.346610595703125,-0.21028417348861694,0.2357870489358902,0.027182703837752342
1731409970186416000,2.356416015625,-0.20784078538417816,0.24556060135364532,0.013744063675403595
1731409970196222500,2.366222412109375,-0.2029540091753006,0.2651077210903168,-0.01435491070151329
1731409970206028000,2.376028076171875,-0.19318044185638428,0.2907632887363434,-0.0522274412214756
1731409970215832600,2.38583251953125,-0.19562382996082306,0.2883199155330658,-0.0791047215461731
1731409970225638100,2.39563818359375,-0.19928891956806183,0.24556060135364532,-0.09376505762338638
1731409970235444500,2.405444580078125,-0.19440214335918427,0.1820324808359146,-0.10353861004114151
1731409970245250000,2.41525,-0.18585027754306793,0.130721315741539,-0.12186402827501297
1731409970255054800,2.425054931640625,-0.16996824741363525,0.09895725548267365,-0.14141114056110382
1731409970264860400,2.4348603515625,-0.14553436636924744,0.08796200156211853,-0.15118469297885895
1731409970274666800,2.444666748046875,-0.125987246632576,0.08429691940546036,-0.14629791676998138
1731409970284472300,2.454472412109375,-0.11621369421482086,0.07330167293548584,-0.13408097624778748
1731409970294276900,2.46427685546875,-0.10888352245092392,0.04031591862440109,-0.12430741637945175
1731409970304082700,2.474082763671875,-0.09910997003316879,0.0024433890357613564,-0.12064233422279358
1731409970313889000,2.483888916015625,-0.07956285774707794,-0.029320668429136276,-0.1181989461183548
1731409970323694300,2.4936943359375,-0.0587940476834774,-0.06841489672660828,-0.10842538625001907
1731409970333499100,2.5034990234375,-0.04291202127933502,-0.11239589750766754,-0.08399149775505066
1731409970343304700,2.5133046875,-0.029473381116986275,-0.1575985997915268,-0.04978405311703682
1731409970353111000,2.523111083984375,-0.02092151902616024,-0.1979145109653473,-0.011911521665751934
1731409970362916600,2.53291650390625,-0.02092151902616024,-0.21746163070201874,0.014965757727622986
1731409970372721200,2.54272119140625,-0.031916771084070206,-0.2113531529903412,0.025961007922887802
1731409970382527000,2.55252685546875,-0.045355409383773804,-0.19058434665203094,0.02107422985136509
1731409970392333300,2.562333251953125,-0.06368082761764526,-0.17714570462703705,0.013744063675403595
1731409970402138600,2.572138671875,-0.0856713280081749,-0.1844758689403534,0.013744063675403595
1731409970411943400,2.581943359375,-0.11621369421482086,-0.20402298867702484,0.032069481909275055
1731409970421749000,2.5917490234375,-0.14675605297088623,-0.22967857122421265,0.051616594195365906
1731409970431555300,2.601555419921875,-0.17363333702087402,-0.2492256760597229,0.06261184066534042
1731409970441361000,2.61136083984375,-0.19562382996082306,-0.261442631483078,0.08093725889921188
1731409970451165700,2.621165771484375,-0.21150586009025574,-0.2870981991291046,0.1053711548447609
1731409970460971300,2.63097119140625,-0.2163926362991333,-0.3054236173629761,0.12858334183692932
1731409970470777600,2.640777587890625,-0.20784078538417816,-0.30664533376693726,0.14935214817523956
1731409970480583200,2.650583251953125,-0.1907370537519455,-0.29565006494522095,0.16767756640911102
1731409970490387700,2.6603876953125,-0.17974179983139038,-0.2761029601097107,0.17500774562358856
1731409970500193300,2.670193359375,-0.17363333702087402,-0.258999228477478,0.17867282032966614
1731409970509999900,2.679999755859375,-0.17118994891643524,-0.24311721324920654,0.1823379099369049
1731409970519805200,2.68980517578125,-0.16019469499588013,-0.22479179501533508,0.18600298464298248
1731409970529610000,2.69960986328125,-0.14064757525920868,-0.20280128717422485,0.17745113372802734
1731409970539415600,2.70941552734375,-0.11743538826704025,-0.17836740612983704,0.15179555118083954
1731409970549222000,2.719221923828125,-0.09300149232149124,-0.14782503247261047,0.11392301321029663
1731409970559027500,2.72902734375,-0.07345438003540039,-0.13316470384597778,0.07482878863811493
1731409970568832300,2.738832275390625,-0.06734590977430344,-0.13927318155765533,0.049173206090927124
1731409970578637600,2.748637451171875,-0.06001574173569679,-0.14660334587097168,0.033291175961494446
1731409970588444200,2.758444091796875,-0.05390727147459984,-0.14904673397541046,0.029626091942191124
1731409970598249700,2.768249755859375,-0.05390727147459984,-0.12216944992542267,0.02473931387066841
1731409970608054300,2.77805419921875,-0.06123743951320648,-0.07330167293548584,0.008857285603880882
1731409970617859800,2.78785986328125,-0.072232685983181,-0.03420744836330414,-0.009468132629990578
1731409970627666200,2.797666259765625,-0.07956285774707794,-0.013438640162348747,-0.01435491070151329
1731409970637471700,2.8074716796875,-0.0844496339559555,-0.012216945178806782,-0.018019994720816612
1731409970647276500,2.817276611328125,-0.0856713280081749,-0.028098974376916885,-0.03634541109204292
1731409970657082000,2.82708203125,-0.08322793990373611,-0.06719319522380829,-0.059557609260082245
1731409970666888400,2.836888427734375,-0.09300149232149124,-0.10262233763933182,-0.07666133344173431
1731409970676694000,2.846694091796875,-0.09910997003316879,-0.1172826737165451,-0.07666133344173431
1731409970686498800,2.856498779296875,-0.0978882759809494,-0.10628741979598999,-0.0778830274939537
1731409970696304000,2.86630419921875,-0.09666658192873001,-0.07330167293548584,-0.091321662068367
1731409970706110700,2.87611083984375,-0.0978882759809494,-0.026877280324697495,-0.12552911043167114
1731409970715916300,2.885916259765625,-0.09544488787651062,0.0012216945178806782,-0.17928366363048553
1731409970725720800,2.895720947265625,-0.09666658192873001,-0.012216945178806782,-0.21959958970546722
1731409970735526400,2.9055263671875,-0.10521844029426575,-0.0647498071193695,-0.22815145552158356
1731409970745332700,2.915332763671875,-0.11377029865980148,-0.12583453953266144,-0.20005246996879578
1731409970755138300,2.92513818359375,-0.11987877637147903,-0.1710372269153595,-0.16340164840221405
1731409970764943000,2.934943115234375,-0.12354385852813721,-0.21501824259757996,-0.15118469297885895
1731409970774748700,2.944748779296875,-0.14186927676200867,-0.24311721324920654,-0.07543963938951492
1731409970784555000,2.954554931640625,-0.18585027754306793,-0.20157960057258606,0.07605048269033432
1731409970794360600,2.964360595703125,-0.2518217861652374,-0.10384403169155121,0.21776704490184784
1731409970804165400,2.974165283203125,-0.32756683230400085,-0.028098974376916885,0.29839888215065
1731409970813971000,2.983970947265625,-0.3984251320362091,-0.028098974376916885,0.3179459869861603
1731409970823777300,2.99377734375,-0.4424061179161072,-0.129499614238739,0.3570402264595032
1731409970833582800,3.003582763671875,-0.46073153614997864,-0.2895416021347046,0.42789849638938904
1731409970843387400,3.013387451171875,-0.4411844313144684,-0.48012593388557434,0.4840964674949646
1731409970853193200,3.023193115234375,-0.39231663942337036,-0.707361102104187,0.5256340503692627
1731409970862999600,3.03299951171875,-0.34100547432899475,-0.9407047629356384,0.5952706336975098
1731409970872804900,3.042804931640625,-0.2945810854434967,-1.1276240348815918,0.7027797698974609
1731409970882609700,3.052609619140625,-0.25060009956359863,-1.2131426334381104,0.8139539957046509
1731409970892415200,3.062415283203125,-0.20051060616970062,-1.2143644094467163,0.9141329526901245
1731409970902221600,3.0722216796875,-0.1650814712047577,-1.188708782196045,0.906802773475647
1731409970912027100,3.082027099609375,-0.14797775447368622,-1.1251806020736694,0.8078454732894897
1731409970921832000,3.09183203125,-0.16874656081199646,-1.1777135133743286,0.7235485911369324
1731409970931637500,3.101637451171875,-0.2151709496974945,-1.3023263216018677,0.7357655167579651
1731409970941443800,3.11144384765625,-0.23349636793136597,-1.3841798305511475,0.8017370104789734
1731409970951249400,3.12124951171875,-0.21028417348861694,-1.3756279945373535,0.8359444737434387
1731409970961054200,3.13105419921875,-0.16019469499588013,-1.2974395751953125,0.7931851744651794
1731409970970859500,3.140859619140625,-0.09177979826927185,-1.1618314981460571,0.6917845010757446
1731409970980666000,3.150666015625,-0.006261184345930815,-1.022558331489563,0.6099309921264648
1731409970990471400,3.160471435546875,0.0988045409321785,-0.9333745837211609,0.6294780969619751
1731409971000276200,3.170276123046875,0.19531841576099396,-0.8527427911758423,0.7162184119224548
1731409971010081800,3.180081787109375,0.24052110314369202,-0.726908266544342,0.7467607855796814
1731409971019888000,3.18988818359375,0.37979426980018616,-0.5338805317878723,0.6563553810119629
1731409971029693700,3.199693603515625,0.4775298535823822,-0.2748812735080719,0.49020493030548096
1731409971039498500,3.20949853515625,0.5544965863227844,-0.08307522535324097,0.37414395809173584
1731409971049304000,3.219303955078125,0.6143596172332764,0.03665083646774292,0.3301629424095154
1731409971059110400,3.2291103515625,0.6754443645477295,0.06963659077882767,0.3045073449611664
1731409971068916000,3.238916015625,0.7939487099647522,-0.08063183724880219,0.14813046157360077
1731409971078720800,3.248720703125,1.0016367435455322,-0.33230090141296387,-0.17561858892440796
1731409971088526300,3.2585263671875,1.1470184326171875,-0.37506023049354553,-0.4089622497558594
1731409971098332700,3.268332763671875,1.0688300132751465,-0.11972606182098389,-0.3674246370792389
1731409971108138200,3.27813818359375,0.8330429196357727,0.1453816443681717,-0.1719534993171692
1731409971117942800,3.28794287109375,0.585038959980011,0.284654825925827,-0.020463382825255394
1731409971127748600,3.29774853515625,0.39323291182518005,0.4618005156517029,0.11392301321029663
1731409971137555000,3.307554931640625,0.2820587158203125,0.5913001298904419,0.2617480456829071
1731409971147360300,3.3173603515625,0.27350685000419617,0.5509842038154602,0.27885177731513977
1731409971157165000,3.3271650390625,0.2845021188259125,0.3958290219306946,0.19333316385746002
1731409971166970600,3.336970703125,0.266176700592041,0.2211267054080963,0.10781454294919968
1731409971176777000,3.34677685546875,0.21853061020374298,0.12216944992542267,0.09559759497642517
1731409971186582500,3.35658251953125,0.15744587779045105,0.1185043677687645,0.19211146235466003
1731409971196387300,3.36638720703125,0.09391776472330093,0.1429382562637329,0.34604495763778687
1731409971206193000,3.37619287109375,0.024281177669763565,0.130721315741539,0.46577104926109314
1731409971215999200,3.385999267578125,-0.0331384651362896,0.05131116881966591,0.5231906771659851
1731409971225804800,3.3958046875,-0.05757235363125801,-0.07085828483104706,0.5745018720626831
1731409971235609600,3.405609619140625,-0.03436015918850899,-0.17836740612983704,0.6526902914047241
1731409971245415200,3.415415283203125,0.004734066314995289,-0.284654825925827,0.7321004271507263
1731409971255221500,3.425221435546875,0.007177455350756645,-0.4214846193790436,0.7919634580612183
1731409971265027000,3.435027099609375,-0.027029991149902344,-0.5509842038154602,0.8579349517822266
1731409971274831600,3.44483154296875,-0.07589777559041977,-0.6389462351799011,0.8982508778572083
1731409971284637200,3.45463720703125,-0.0978882759809494,-0.6389462351799011,0.8677085041999817
1731409971294443800,3.46444384765625,-0.07101099193096161,-0.5277720093727112,0.7345438003540039
1731409971304249000,3.4742490234375,-0.02092151902616024,-0.40071579813957214,0.5280774831771851
1731409971314054000,3.484053955078125,0.041384901851415634,-0.31886225938796997,0.3790307343006134
1731409971323859500,3.493859375,0.09269607067108154,-0.2638860046863556,0.3179459869861603
1731409971333665800,3.503665771484375,0.0988045409321785,-0.25655585527420044,0.29351210594177246
1731409971343471400,3.513471435546875,0.06459710001945496,-0.22845686972141266,0.2104368805885315
1731409971353276200,3.523276123046875,0.0719272643327713,-0.2089097648859024,0.08948912471532822
1731409971363081700,3.533081787109375,0.042606595903635025,-0.2357870489358902,0.03695625811815262
1731409971372888000,3.54288818359375,-0.03680354729294777,-0.36162158846855164,0.0662769302725792
1731409971382693600,3.552693603515625,-0.11377029865980148,-0.32130566239356995,0.003970507066696882
1731409971392498400,3.56249853515625,-0.1113269105553627,0.04153761267662048,-0.1304158866405487
1731409971402304000,3.572303955078125,0.005955760832875967,0.5864133834838867,-0.2599155008792877
1731409971412110300,3.5821103515625,-0.028251685202121735,-0.3310792148113251,0.08948912471532822
1731409971421916000,3.591916015625,0.21242213249206543,-1.0714260339736938,0.2654131352901459
1731409971431720400,3.601720458984375,0.37979426980018616,-0.5057815313339233,-0.060779303312301636
1731409971441526300,3.6115263671875,0.07070557028055191,0.21623992919921875,-0.11331216990947723
1731409971451332600,3.62133251953125,-0.11743538826704025,0.047646086663007736,0.0662769302725792
1731409971461138000,3.631137939453125,-0.046577103435993195,-0.13805148005485535,-0.020463382825255394
1731409971470942700,3.640942626953125,-0.012369656935334206,-0.0781884491443634,-0.15484978258609772
1731409971480748300,3.650748291015625,-0.0587940476834774,-0.05375456064939499,-0.17684027552604675
1731409971490554600,3.6605546875,-0.08689302206039429,-0.08429691940546036,-0.16462333500385284
1731409971500360200,3.670360107421875,-0.09422318637371063,-0.046424392610788345,-0.1291942000389099
1731409971510165000,3.6801650390625,-0.10521844029426575,-0.0012216945178806782,-0.09376505762338638
1731409971519970600,3.689970458984375,-0.10521844029426575,0.006108472589403391,-0.09865183383226395
1731409971529777000,3.69977685546875,-0.11010521650314331,0.023212196305394173,-0.11942064017057419
1731409971539582500,3.70958251953125,-0.12843063473701477,0.11117420345544815,-0.12675081193447113
1731409971549387300,3.71938720703125,-0.15286453068256378,0.11483928561210632,-0.040010496973991394
1731409971559192800,3.72919287109375,-0.14309096336364746,0.0781884491443634,0.00519220158457756
1731409971568999200,3.738999267578125,-0.13209572434425354,0.0659715011715889,0.010078979656100273
1731409971578804700,3.7488046875,-0.13331741094589233,0.11117420345544815,-0.007024743594229221
1731409971588609300,3.758609375,-0.1369825005531311,0.13316470384597778,0.002748812548816204
1731409971598415000,3.7684150390625,-0.12110047042369843,0.1319430023431778,0.018630841746926308
1731409971608221400,3.778221435546875,-0.0856713280081749,0.11972606182098389,0.027182703837752342
1731409971618027000,3.788027099609375,-0.04169032722711563,0.1050657257437706,0.0198525357991457
1731409971627831600,3.79783154296875,-0.00992626789957285,0.10017894953489304,0.007635590620338917
1731409971637637000,3.80763720703125,0.009620844386518002,0.10017894953489304,-0.005803049076348543
1731409971647443500,3.817443359375,0.01817270554602146,0.10017894953489304,-0.025350160896778107
1731409971657249000,3.8272490234375,0.019394399598240852,0.10750912129878998,-0.042453885078430176
1731409971667053800,3.8370537109375,0.01695101149380207,0.10140064358711243,-0.05344913527369499
1731409971676859400,3.846859375,0.020616095513105392,0.08063183724880219,-0.057114217430353165
1731409971686665700,3.856665771484375,0.020616095513105392,0.05741964280605316,-0.059557609260082245
1731409971696471300,3.86647119140625,0.012064233422279358,0.03665083646774292,-0.0656660795211792
1731409971706276000,3.876276123046875,0.007177455350756645,0.01832541823387146,-0.06322269141674042
1731409971716081700,3.88608154296875,0.0035123717971146107,0.006108472589403391,-0.0522274412214756
1731409971725888000,3.895887939453125,-0.00259610079228878,-0.0012216945178806782,-0.037567105144262314
1731409971735693600,3.905693603515625,-0.0038177953101694584,0.004886778071522713,-0.037567105144262314
1731409971745498400,3.915498291015625,-0.007482878863811493,0.0036650835536420345,-0.04367557913064957
1731409971755304000,3.925303955078125,-0.014813045971095562,-0.0012216945178806782,-0.04856235533952713
1731409971765110300,3.9351103515625,-0.027029991149902344,-0.012216945178806782,-0.057114217430353165
1731409971774915600,3.94491552734375,-0.0331384651362896,-0.029320668429136276,-0.055892523378133774
1731409971784720400,3.954720458984375,-0.03680354729294777,-0.04153761267662048,-0.055892523378133774
1731409971794526000,3.96452587890625,-0.03680354729294777,-0.04031591862440109,-0.059557609260082245
1731409971804332500,3.97433251953125,-0.03802524134516716,-0.03176405653357506,-0.06200099736452103
1731409971814137900,3.984137939453125,-0.03558185324072838,-0.026877280324697495,-0.057114217430353165
1731409971823942700,3.993942626953125,-0.03558185324072838,-0.028098974376916885,-0.05344913527369499
1731409971833748200,4.003748291015625,-0.03436015918850899,-0.030542362481355667,-0.057114217430353165
1731409971843554600,4.013554443359375,-0.030695075169205666,-0.03542914241552353,-0.060779303312301636
1731409971853360000,4.023360107421875,-0.024586603045463562,-0.042759306728839874,-0.06322269141674042
1731409971863165000,4.0331650390625,-0.01847812905907631,-0.046424392610788345,-0.0656660795211792
1731409971872970500,4.042970458984375,-0.016034740954637527,-0.05375456064939499,-0.06933116167783737
1731409971882776800,4.05277685546875,-0.012369656935334206,-0.05741964280605316,-0.07421794533729553
1731409971892582400,4.06258251953125,-0.001374406274408102,-0.04886778071522713,-0.08276980370283127
1731409971902387200,4.07238720703125,0.009620844386518002,-0.042759306728839874,-0.0925433561205864
1731409971912192800,4.08219287109375,0.013285927474498749,-0.046424392610788345,-0.09498675167560577
1731409971921999000,4.0919990234375,0.009620844386518002,-0.05497625470161438,-0.091321662068367
1731409971931804700,4.1018046875,0.004734066314995289,-0.06352811306715012,-0.09009996801614761
1731409971941609500,4.111609375,0.0022906772792339325,-0.07574506103992462,-0.0925433561205864
1731409971951414800,4.121414794921875,0.005955760832875967,-0.0916270911693573,-0.09009996801614761
1731409971961221400,4.131221435546875,0.01695101149380207,-0.1050657257437706,-0.07543963938951492
1731409971971026700,4.141026611328125,0.0328330397605896,-0.1185043677687645,-0.06200099736452103
1731409971980831500,4.15083154296875,0.0462716780602932,-0.129499614238739,-0.057114217430353165
1731409971990637000,4.160636962890625,0.05726693198084831,-0.13438639044761658,-0.060779303312301636
1731409972000443400,4.170443359375,0.06459710001945496,-0.13438639044761658,-0.0656660795211792
1731409972010249000,4.1802490234375,0.06337540596723557,-0.129499614238739,-0.07055285573005676
1731409972020053800,4.1900537109375,0.0584886260330677,-0.11606097966432571,-0.07421794533729553
1731409972029859300,4.199859375,0.05482354015111923,-0.10017894953489304,-0.08154810965061188
1731409972039665700,4.209665771484375,0.05726693198084831,-0.09040539711713791,-0.08887827396392822
1731409972049471200,4.21947119140625,0.06337540596723557,-0.09284878522157669,-0.09376505762338638
1731409972059276000,4.229276123046875,0.07314895838499069,-0.09040539711713791,-0.09620844572782516
1731409972069081600,4.23908154296875,0.07559234648942947,-0.08185353130102158,-0.09620844572782516
1731409972078888000,4.248887939453125,0.07681404054164886,-0.0647498071193695,-0.10598199814558029
1731409972088693500,4.258693603515625,0.07314895838499069,-0.062306419014930725,-0.12552911043167114
1731409972098498300,4.268498291015625,0.060932014137506485,-0.08063183724880219,-0.13652436435222626
1731409972108303600,4.2783037109375,0.04749337583780289,-0.09895725548267365,-0.14141114056110382
1731409972118110200,4.288110107421875,0.041384901851415634,-0.11606097966432571,-0.1438545286655426
1731409972127915800,4.297915771484375,0.04016320779919624,-0.13560809195041656,-0.14629791676998138
1731409972137720300,4.30772021484375,0.041384901851415634,-0.1588202863931656,-0.14996300637722015
1731409972147526000,4.31752587890625,0.041384901851415634,-0.1820324808359146,-0.14874130487442017
1731409972157332500,4.32733251953125,0.04749337583780289,-0.20157960057258606,-0.14141114056110382
1731409972167137800,4.3371376953125,0.05238015204668045,-0.21868331730365753,-0.13530266284942627
1731409972176942600,4.346942626953125,0.05238015204668045,-0.23212195932865143,-0.13530266284942627
1731409972186748200,4.356748046875,0.05360184609889984,-0.2480039894580841,-0.14141114056110382
1731409972196554500,4.366554443359375,0.05238015204668045,-0.261442631483078,-0.15240639448165894
1731409972206360000,4.376360107421875,0.04993676394224167,-0.26632940769195557,-0.16217994689941406
1731409972216164900,4.386164794921875,0.05360184609889984,-0.26632940769195557,-0.1695101112127304
1731409972225970400,4.395970458984375,0.06459710001945496,-0.2626643180847168,-0.17561858892440796
1731409972235776800,4.40577685546875,0.06948387622833252,-0.25289076566696167,-0.1829487532377243
1731409972245582300,4.415582275390625,0.07559234648942947,-0.23823043704032898,-0.1829487532377243
1731409972255387100,4.42538720703125,0.08170082420110703,-0.21623992919921875,-0.17684027552604675
1731409972265192400,4.4351923828125,0.0853659063577652,-0.19058434665203094,-0.1682884246110916
1731409972274999000,4.4449990234375,0.0853659063577652,-0.16248537600040436,-0.15973655879497528
1731409972284804600,4.4548046875,0.08170082420110703,-0.13682979345321655,-0.14996300637722015
1731409972294609200,4.464609130859375,0.07559234648942947,-0.10995250940322876,-0.13530266284942627
1731409972304415000,4.4744150390625,0.06704048812389374,-0.08429691940546036,-0.11453386396169662
1731409972314221300,4.48422119140625,0.05726693198084831,-0.062306419014930725,-0.09498675167560577
1731409972324026600,4.494026611328125,0.04749337583780289,-0.04153761267662048,-0.07421794533729553
1731409972333831400,4.50383154296875,0.041384901851415634,-0.01710372418165207,-0.057114217430353165
1731409972343637000,4.513636962890625,0.03405473381280899,0.01588202826678753,-0.037567105144262314
1731409972353443300,4.523443359375,0.025502873584628105,0.05741964280605316,-0.022906772792339325
1731409972363249000,4.533248779296875,0.019394399598240852,0.09040539711713791,-0.010689826682209969
1731409972373053700,4.5430537109375,0.012064233422279358,0.10873081535100937,-0.003359660040587187
1731409972382859300,4.552859375,0.0022906772792339325,0.1172826737165451,0.002748812548816204
1731409972392665600,4.56266552734375,-0.006261184345930815,0.129499614238739,0.003970507066696882
1731409972402471200,4.57247119140625,-0.013591351918876171,0.14049486815929413,0.006413896102458239
1731409972412276000,4.58227587890625,-0.02214321307837963,0.15026842057704926,0.014965757727622986
1731409972422081500,4.59208154296875,-0.031916771084070206,0.1563768982887268,0.02229592576622963
1731409972431888000,4.601887939453125,-0.04169032722711563,0.1563768982887268,0.02473931387066841
1731409972441693400,4.611693359375,-0.049020491540431976,0.15515519678592682,0.02351761981844902
1731409972451498000,4.621498046875,-0.05024218559265137,0.1575985997915268,0.0198525357991457
1731409972461303800,4.6313037109375,-0.051463883370161057,0.1575985997915268,0.02229592576622963
1731409972471110100,4.641110107421875,-0.06245913356542587,0.15515519678592682,0.033291175961494446
1731409972480915500,4.65091552734375,-0.072232685983181,0.1453816443681717,0.04062134400010109
1731409972490720300,4.66072021484375,-0.07834116369485855,0.13316470384597778,0.04306473210453987
1731409972500525800,4.67052587890625,-0.07956285774707794,0.12094775587320328,0.03451287001371384
1731409972510332200,4.680332275390625,-0.0844496339559555,0.11361759155988693,0.027182703837752342
1731409972520137700,4.6901376953125,-0.08811471611261368,0.10995250940322876,0.025961007922887802
1731409972529942500,4.699942626953125,-0.08322793990373611,0.10628741979598999,0.032069481909275055
1731409972539748000,4.709748046875,-0.07589777559041977,0.10384403169155121,0.03817795217037201
1731409972549554400,4.719554443359375,-0.06490252166986465,0.10140064358711243,0.04184303805232048
1731409972559360000,4.729360107421875,-0.051463883370161057,0.09651386737823486,0.049173206090927124
1731409972569164800,4.739164794921875,-0.0331384651362896,0.09773556143045425,0.05772506445646286
1731409972578970400,4.748970458984375,-0.013591351918876171,0.10140064358711243,0.0650552362203598
1731409972588776700,4.758776611328125,0.004734066314995289,0.11239589750766754,0.0650552362203598
1731409972598582300,4.768582275390625,0.019394399598240852,0.129499614238739,0.05772506445646286
1731409972608387000,4.778386962890625,0.027946261689066887,0.1429382562637329,0.04306473210453987
1731409972618192600,4.788192626953125,0.03161134570837021,0.14660334587097168,0.02351761981844902
1731409972627999000,4.7979990234375,0.029167955741286278,0.14904673397541046,0.00519220158457756
1731409972637804300,4.80780419921875,0.026724567636847496,0.15271180868148804,-0.008246437646448612
1731409972647609000,4.817609130859375,0.021837789565324783,0.15149012207984924,-0.015576604753732681
1731409972657414700,4.82741455078125,0.01817270554602146,0.1441599577665329,-0.008246437646448612
1731409972667221000,4.837220947265625,0.012064233422279358,0.13560809195041656,0.008857285603880882
1731409972677026600,4.847026611328125,0.008399149402976036,0.12705622613430023,0.028404397889971733
1731409972686831400,4.856831298828125,0.004734066314995289,0.1185043677687645,0.04550812020897865
1731409972696637000,4.866636962890625,0.0035123717971146107,0.10628741979598999,0.047951508313417435
1731409972706443300,4.876443359375,0.0010689827613532543,0.10262233763933182,0.04428642615675926
1731409972716248800,4.886248779296875,-0.007482878863811493,0.0916270911693573,0.05528167635202408
1731409972726053600,4.8960537109375,-0.012369656935334206,0.09040539711713791,0.06261184066534042
1731409972735859200,4.905859130859375,-0.00992626789957285,0.08674030750989914,0.06139015033841133
1731409972745665500,4.91566552734375,-0.00992626789957285,0.07574506103992462,0.06261184066534042
1731409972755471000,4.92547119140625,-0.0038177953101694584,0.08307522535324097,0.051616594195365906
1731409972765276000,4.93527587890625,0.010842538438737392,0.09529217332601547,0.030847785994410515
1731409972775081500,4.94508154296875,0.023059483617544174,0.10017894953489304,0.00519220158457756
1731409972784887800,4.9548876953125,0.027946261689066887,0.09651386737823486,-0.018019994720816612
1731409972794693400,4.964693359375,0.029167955741286278,0.10628741979598999,-0.038788799196481705
1731409972804498000,4.974497802734375,0.03527642786502838,0.12583453953266144,-0.060779303312301636
1731409972814303700,4.9843037109375,0.043828289955854416,0.1319430023431778,-0.08154810965061188
1731409972824110000,4.994110107421875,0.04871506989002228,0.11972606182098389,-0.091321662068367
1731409972833915400,5.003915283203125,0.059710320085287094,0.10873081535100937,-0.0925433561205864
1731409972843720200,5.01372021484375,0.06581879407167435,0.08551861345767975,-0.09009996801614761
1731409972853525800,5.02352587890625,0.07070557028055191,0.05864133685827255,-0.091321662068367
1731409972863332000,5.03333203125,0.07070557028055191,0.026877280324697495,-0.091321662068367
1731409972873137700,5.0431376953125,0.06337540596723557,-0.013438640162348747,-0.08521319180727005
1731409972882942500,5.0529423828125,0.05726693198084831,-0.047646086663007736,-0.0778830274939537
1731409972892748000,5.062748046875,0.05726693198084831,-0.08063183724880219,-0.06933116167783737
1731409972902554400,5.072554443359375,0.05115845799446106,-0.1050657257437706,-0.0656660795211792
1731409972912360000,5.08235986328125,0.04993676394224167,-0.12339114397764206,-0.06444438546895981
1731409972922164700,5.092164794921875,0.05238015204668045,-0.17225892841815948,-0.06322269141674042
1731409972931970300,5.10197021484375,0.04016320779919624,-0.2235700935125351,-0.06322269141674042
1731409972941776600,5.111776611328125,0.021837789565324783,-0.2357870489358902,-0.07055285573005676
1731409972951582200,5.121582275390625,0.012064233422279358,-0.22967857122421265,-0.09498675167560577
1731409972961387000,5.131386962890625,0.007177455350756645,-0.2113531529903412,-0.1304158866405487
1731409972971192600,5.141192626953125,0.004734066314995289,-0.21868331730365753,-0.14874130487442017
1731409972980999000,5.1509990234375,0.020616095513105392,-0.23945212364196777,-0.1682884246110916
1731409972990804200,5.16080419921875,0.023059483617544174,-0.24311721324920654,-0.17317520081996918
1731409973000609000,5.170609130859375,-0.00015271181473508477,-0.23334364593029022,-0.16340164840221405
1731409973010414600,5.18041455078125,-0.007482878863811493,-0.23945212364196777,-0.16095824539661407
1731409973020221200,5.19022119140625,-0.00259610079228878,-0.25289076566696167,-0.16217994689941406
1731409973030026500,5.200026611328125,-0.0050394898280501366,-0.2651077210903168,-0.16217994689941406
1731409973039831300,5.209831298828125,-0.01847812905907631,-0.25411245226860046,-0.14996300637722015
1731409973049636900,5.219636962890625,-0.03680354729294777,-0.24678228795528412,-0.12675081193447113
1731409973059443200,5.229443115234375,-0.04046862944960594,-0.24189551174640656,-0.10842538625001907
1731409973069248800,5.239248779296875,-0.04169032722711563,-0.2235700935125351,-0.10353861004114151
1731409973079053600,5.249053466796875,-0.046577103435993195,-0.20280128717422485,-0.09865183383226395
1731409973088859100,5.258859130859375,-0.051463883370161057,-0.19424942135810852,-0.09620844572782516
1731409973098665500,5.26866552734375,-0.05757235363125801,-0.18691925704479218,-0.09743013978004456
1731409973108471000,5.278470947265625,-0.06123743951320648,-0.1832541823387146,-0.09987352788448334
1731409973118275800,5.28827587890625,-0.06001574173569679,-0.17836740612983704,-0.10353861004114151
1731409973128081400,5.298081298828125,-0.05024218559265137,-0.17348061501979828,-0.10720369219779968
1731409973137887700,5.3078876953125,-0.04413371533155441,-0.16737215220928192,-0.10598199814558029
1731409973147693300,5.317693359375,-0.03558185324072838,-0.16004198789596558,-0.1047603040933609
1731409973157498000,5.327498046875,-0.029473381116986275,-0.15271180868148804,-0.1047603040933609
1731409973167303700,5.3373037109375,-0.02092151902616024,-0.1453816443681717,-0.10109522193670273
1731409973177110000,5.347110107421875,-0.012369656935334206,-0.13805148005485535,-0.09009996801614761
1731409973186915600,5.35691552734375,-0.0038177953101694584,-0.130721315741539,-0.06444438546895981
1731409973196720000,5.36672021484375,0.007177455350756645,-0.10384403169155121,-0.03145863488316536
1731409973206526000,5.37652587890625,0.025502873584628105,-0.05131116881966591,-0.018019994720816612
1731409973216332300,5.386332275390625,0.04871506989002228,0.013438640162348747,-0.026571854948997498
1731409973226137600,5.3961376953125,0.07070557028055191,0.062306419014930725,-0.04978405311703682
1731409973235942400,5.4059423828125,0.0841442123055458,0.08551861345767975,-0.07543963938951492
1731409973245748200,5.415748291015625,0.08658760040998459,0.09773556143045425,-0.09620844572782516
1731409973255554600,5.425554443359375,0.0841442123055458,0.10140064358711243,-0.10720369219779968
1731409973265360000,5.43535986328125,0.07559234648942947,0.10384403169155121,-0.10842538625001907
1731409973275164700,5.44516455078125,0.06337540596723557,0.11483928561210632,-0.09987352788448334
1731409973284970200,5.45497021484375,0.05115845799446106,0.12583453953266144,-0.08643488585948944
1731409973294776600,5.464776611328125,0.03527642786502838,0.11972606182098389,-0.06444438546895981
1731409973304582100,5.47458203125,0.01695101149380207,0.10017894953489304,-0.041232191026210785
1731409973314387000,5.484386962890625,-0.001374406274408102,0.08063183724880219,-0.015576604753732681
1731409973324192500,5.494192626953125,-0.01969982497394085,0.05741964280605316,0.014965757727622986
1731409973333998800,5.503998779296875,-0.03558185324072838,0.03787253051996231,0.046729814261198044
1731409973343804400,5.513804443359375,-0.05024218559265137,0.024433890357613564,0.07360709458589554
1731409973353609200,5.523609130859375,-0.06368082761764526,0.01832541823387146,0.09071081876754761
1731409973363414800,5.533414794921875,-0.06734590977430344,0.009773556143045425,0.09437590092420578
1731409973373221000,5.54322119140625,-0.06612421572208405,0.0012216945178806782,0.08460234850645065
1731409973383026700,5.553026611328125,-0.072232685983181,-0.004886778071522713,0.08215895295143127
1731409973392831500,5.56283154296875,-0.07589777559041977,-0.007330167107284069,0.08215895295143127
1731409973402637000,5.572636962890625,-0.06978929787874222,-0.0024433890357613564,0.0662769302725792
1731409973412443400,5.582443359375,-0.06001574173569679,-0.0012216945178806782,0.0528382882475853
1731409973422249000,5.5922490234375,-0.047798797488212585,0.006108472589403391,0.04062134400010109
1731409973432053500,5.602053466796875,-0.027029991149902344,0.01710372418165207,0.02229592576622963
1731409973441859300,5.611859375,-0.0050394898280501366,0.025655584409832954,0.008857285603880882
1731409973451665700,5.621665771484375,0.013285927474498749,0.028098974376916885,0.011300674639642239
1731409973461471200,5.63147119140625,0.026724567636847496,0.029320668429136276,0.027182703837752342
1731409973471276000,5.641276123046875,0.03894151374697685,0.03298575058579445,0.03573456406593323
1731409973481081300,5.651081298828125,0.05360184609889984,0.03787253051996231,0.03817795217037201
1731409973490888000,5.660887939453125,0.06826218217611313,0.043981000781059265,0.04306473210453987
1731409973500693200,5.670693359375,0.07681404054164886,0.05131116881966591,0.0528382882475853
1731409973510498000,5.680498046875,0.08658760040998459,0.05619794875383377,0.06261184066534042
1731409973520303900,5.690303955078125,0.10002623498439789,0.07207997888326645,0.06872031837701797
1731409973530110000,5.70010986328125,0.10735640674829483,0.08674030750989914,0.0650552362203598
1731409973539915500,5.70991552734375,0.10857810080051422,0.09773556143045425,0.05528167635202408
1731409973549720300,5.71972021484375,0.10613471269607544,0.11483928561210632,0.046729814261198044
1731409973559526000,5.72952587890625,0.10491301864385605,0.12583453953266144,0.03573456406593323
1731409973569332500,5.73933251953125,0.10124793648719788,0.13927318155765533,0.03573456406593323
1731409973579137800,5.7491376953125,0.0975828468799591,0.15271180868148804,0.03817795217037201
1731409973588942600,5.758942626953125,0.09636115282773972,0.16737215220928192,0.050394900143146515
1731409973598748200,5.768748046875,0.08780929446220398,0.17225892841815948,0.06383354216814041
1731409973608554500,5.778554443359375,0.07681404054164886,0.16737215220928192,0.07482878863811493
1731409973618360000,5.788360107421875,0.06581879407167435,0.1698155403137207,0.09315420687198639
1731409973628164900,5.798164794921875,0.0584886260330677,0.1588202863931656,0.10903623700141907
1731409973637970400,5.807970458984375,0.04871506989002228,0.16248537600040436,0.13347013294696808
1731409973647776800,5.81777685546875,0.04504998400807381,0.14782503247261047,0.14202198386192322
1731409973657582300,5.827582275390625,0.041384901851415634,0.15149012207984924,0.15057384967803955
1731409973667387100,5.83738720703125,0.03161134570837021,0.14171656966209412,0.15179555118083954
1731409973677192700,5.847192626953125,0.029167955741286278,0.1453816443681717,0.15912571549415588
1731409973686999000,5.8569990234375,0.030389651656150818,0.1453816443681717,0.1566823273897171
1731409973696804600,5.8668046875,0.0328330397605896,0.14904673397541046,0.15057384967803955
1731409973706609400,5.876609375,0.029167955741286278,0.14660334587097168,0.15057384967803955
1731409973716415000,5.8864150390625,0.024281177669763565,0.1453816443681717,0.14690876007080078
1731409973726221300,5.89622119140625,0.021837789565324783,0.15393351018428802,0.145687073469162
1731409973736027000,5.90602685546875,0.020616095513105392,0.1453816443681717,0.13835690915584564
1731409973745831700,5.915831787109375,0.020616095513105392,0.14660334587097168,0.13591352105140686
1731409973755637200,5.92563720703125,0.023059483617544174,0.13805148005485535,0.12736165523529053
1731409973765443600,5.935443603515625,0.025502873584628105,0.13316470384597778,0.12125317752361298
1731409973775249200,5.945249267578125,0.027946261689066887,0.12461283802986145,0.11025793105363846
1731409973785054000,5.955053955078125,0.03161134570837021,0.1185043677687645,0.09804098308086395
1731409973794859500,5.964859619140625,0.030389651656150818,0.10995250940322876,0.08582404255867004
1731409973804665900,5.974665771484375,0.029167955741286278,0.09773556143045425,0.07605048269033432
1731409973814471400,5.984471435546875,0.027946261689066887,0.09040539711713791,0.06994201242923737
1731409973824276200,5.994276123046875,0.027946261689066887,0.08307522535324097,0.07116370648145676
1731409973834081800,6.004081787109375,0.027946261689066887,0.07452336698770523,0.07116370648145676
1731409973843888000,6.01388818359375,0.027946261689066887,0.06963659077882767,0.06994201242923737
1731409973853693700,6.023693603515625,0.027946261689066887,0.062306419014930725,0.06872031837701797
1731409973863498500,6.03349853515625,0.030389651656150818,0.05497625470161438,0.0650552362203598
1731409973873304000,6.043303955078125,0.03405473381280899,0.05008947476744652,0.05650337040424347
1731409973883110400,6.0531103515625,0.03649812191724777,0.042759306728839874,0.047951508313417435
1731409973892916000,6.062916015625,0.03649812191724777,0.04031591862440109,0.04062134400010109
1731409973902720800,6.072720703125,0.03649812191724777,0.0390942245721817,0.028404397889971733
1731409973912526300,6.0825263671875,0.03405473381280899,0.03298575058579445,0.013744063675403595
1731409973922332700,6.092332763671875,0.029167955741286278,0.02076880633831024,0.006413896102458239
1731409973932138200,6.10213818359375,0.025502873584628105,0.012216945178806782,0.003970507066696882
1731409973941943000,6.111943115234375,0.021837789565324783,0.006108472589403391,0.00519220158457756
1731409973951748600,6.12174853515625,0.020616095513105392,0.0024433890357613564,0.007635590620338917
1731409973961555000,6.131554931640625,0.019394399598240852,0.0012216945178806782,0.007635590620338917
1731409973971360500,6.141360595703125,0.021837789565324783,-0.0012216945178806782,0.003970507066696882
1731409973981165300,6.151165283203125,0.023059483617544174,-0.008551862090826035,0.0015271181473508477
1731409973990971000,6.160970947265625,0.020616095513105392,-0.01710372418165207,0.003970507066696882
1731409974000777200,6.170777099609375,0.021837789565324783,-0.01954711228609085,0.00519220158457756
1731409974010582800,6.180582763671875,0.024281177669763565,-0.01832541823387146,0.006413896102458239
1731409974020387600,6.1903876953125,0.025502873584628105,-0.01588202826678753,0.007635590620338917
1731409974030193200,6.200193115234375,0.030389651656150818,-0.008551862090826035,0.00519220158457756
1731409974039999500,6.20999951171875,0.03649812191724777,-0.007330167107284069,-0.008246437646448612
1731409974049805000,6.21980517578125,0.03649812191724777,-0.012216945178806782,-0.016798298805952072
1731409974059609900,6.22960986328125,0.027946261689066887,-0.01710372418165207,-0.010689826682209969
1731409974069415400,6.23941552734375,0.020616095513105392,-0.009773556143045425,-0.01435491070151329
1731409974079221800,6.2492216796875,0.01695101149380207,-0.007330167107284069,-0.020463382825255394
1731409974089027300,6.25902734375,0.010842538438737392,-0.010995250195264816,-0.018019994720816612
1731409974098832100,6.26883203125,0.009620844386518002,-0.008551862090826035,-0.025350160896778107
1731409974108637700,6.2786376953125,0.007177455350756645,-0.004886778071522713,-0.03268032893538475
1731409974118444000,6.288444091796875,0.0035123717971146107,-0.004886778071522713,-0.038788799196481705
1731409974128249600,6.29824951171875,-0.0038177953101694584,-0.006108472589403391,-0.04367557913064957
1731409974138054400,6.308054443359375,-0.00992626789957285,-0.006108472589403391,-0.04734066128730774
1731409974147860000,6.31785986328125,-0.011147962883114815,-0.008551862090826035,-0.05100574716925621
1731409974157666300,6.327666259765625,-0.008704573847353458,-0.009773556143045425,-0.05344913527369499
1731409974167471900,6.337471923828125,-0.007482878863811493,-0.012216945178806782,-0.05467082932591438
1731409974177276700,6.347276611328125,-0.00992626789957285,-0.01588202826678753,-0.05100574716925621
1731409974187082200,6.357082275390625,-0.007482878863811493,-0.01954711228609085,-0.04611896723508835
1731409974196888800,6.366888916015625,-0.007482878863811493,-0.01710372418165207,-0.041232191026210785
1731409974206694100,6.376694091796875,-0.0050394898280501366,-0.01710372418165207,-0.03634541109204292
1731409974216499000,6.3864990234375,-0.0038177953101694584,-0.01710372418165207,-0.03145863488316536
1731409974226304800,6.3963046875,-0.001374406274408102,-0.009773556143045425,-0.03145863488316536
1731409974236111000,6.406111083984375,-0.00259610079228878,-0.006108472589403391,-0.03268032893538475
1731409974245916400,6.41591650390625,-0.0038177953101694584,-0.004886778071522713,-0.02901524491608143
1731409974255721200,6.42572119140625,-0.00259610079228878,-0.0036650835536420345,-0.025350160896778107
1731409974265527000,6.435527099609375,-0.00015271181473508477,0.0012216945178806782,-0.025350160896778107
1731409974275333400,6.44533349609375,0.0010689827613532543,0.0036650835536420345,-0.027793550863862038
1731409974285139000,6.455138916015625,0.0022906772792339325,0.0036650835536420345,-0.03390202298760414
1731409974294943700,6.46494384765625,0.0035123717971146107,0.0036650835536420345,-0.037567105144262314
1731409974304749300,6.474749267578125,-0.001374406274408102,-0.0012216945178806782,-0.038788799196481705
1731409974314555600,6.4845556640625,0.0010689827613532543,-0.007330167107284069,-0.038788799196481705
1731409974324361200,6.494361328125,-0.00015271181473508477,-0.01710372418165207,-0.040010496973991394
1731409974334166000,6.504166015625,-0.00259610079228878,-0.024433890357613564,-0.03634541109204292
1731409974343971600,6.5139716796875,-0.00259610079228878,-0.024433890357613564,-0.02901524491608143
1731409974353778000,6.52377783203125,0.0022906772792339325,-0.026877280324697495,-0.024128466844558716
1731409974363583500,6.53358349609375,0.004734066314995289,-0.029320668429136276,-0.024128466844558716
1731409974373388300,6.54338818359375,0.005955760832875967,-0.0390942245721817,-0.026571854948997498
1731409974383193900,6.55319384765625,0.008399149402976036,-0.043981000781059265,-0.027793550863862038
1731409974393000200,6.563000244140625,0.013285927474498749,-0.046424392610788345,-0.03390202298760414
1731409974402805800,6.5728056640625,0.01695101149380207,-0.04886778071522713,-0.04367557913064957
1731409974412610600,6.582610595703125,0.021837789565324783,-0.05375456064939499,-0.0522274412214756
1731409974422416100,6.592416015625,0.023059483617544174,-0.0647498071193695,-0.057114217430353165
1731409974432222500,6.602222412109375,0.027946261689066887,-0.07207997888326645,-0.05467082932591438
1731409974442028000,6.612028076171875,0.03161134570837021,-0.07207997888326645,-0.05344913527369499
1731409974451832800,6.621832763671875,0.0328330397605896,-0.06841489672660828,-0.055892523378133774
1731409974461638400,6.631638427734375,0.03649812191724777,-0.06841489672660828,-0.059557609260082245
1731409974471445000,6.641445068359375,0.03649812191724777,-0.07207997888326645,-0.060779303312301636
1731409974481250300,6.651250244140625,0.03771981969475746,-0.07574506103992462,-0.06322269141674042
1731409974491055000,6.66105517578125,0.042606595903635025,-0.0781884491443634,-0.06444438546895981
1731409974500861000,6.67086083984375,0.04504998400807381,-0.0781884491443634,-0.06322269141674042
1731409974510667300,6.680667236328125,0.04871506989002228,-0.07574506103992462,-0.06200099736452103
1731409974520472800,6.690472900390625,0.04871506989002228,-0.07207997888326645,-0.058335911482572556
1731409974530277600,6.700277587890625,0.04871506989002228,-0.06719319522380829,-0.05467082932591438
1731409974540083200,6.710083251953125,0.04871506989002228,-0.0659715011715889,-0.04611896723508835
1731409974549889500,6.7198896484375,0.04871506989002228,-0.06352811306715012,-0.03268032893538475
1731409974559695000,6.729695068359375,0.04871506989002228,-0.05497625470161438,-0.021685076877474785
1731409974569500000,6.7395,0.04749337583780289,-0.04031591862440109,-0.015576604753732681
1731409974579305500,6.749305419921875,0.04504998400807381,-0.025655584409832954,-0.013133215717971325
1731409974589111800,6.75911181640625,0.03894151374697685,-0.012216945178806782,-0.011911521665751934
1731409974598917400,6.76891748046875,0.029167955741286278,0.0036650835536420345,-0.010689826682209969
1731409974608722200,6.77872216796875,0.019394399598240852,0.01832541823387146,-0.010689826682209969
1731409974618527700,6.78852783203125,0.008399149402976036,0.026877280324697495,-0.009468132629990578
1731409974628334000,6.798333984375,-0.006261184345930815,0.03665083646774292,-0.009468132629990578
1731409974638139600,6.8081396484375,-0.01725643500685692,0.0390942245721817,-0.007024743594229221
1731409974647944400,6.8179443359375,-0.028251685202121735,0.03420744836330414,0.00030542362947016954
1731409974657750000,6.82775,-0.03558185324072838,0.029320668429136276,0.008857285603880882
1731409974667556600,6.837556640625,-0.04046862944960594,0.03176405653357506,0.02107422985136509
1731409974677362000,6.84736181640625,-0.049020491540431976,0.030542362481355667,0.03573456406593323
1731409974687166700,6.857166748046875,-0.0587940476834774,0.026877280324697495,0.046729814261198044
1731409974696972500,6.86697265625,-0.06490252166986465,0.028098974376916885,0.051616594195365906
1731409974706779000,6.87677880859375,-0.06856760382652283,0.026877280324697495,0.049173206090927124
1731409974716584400,6.88658447265625,-0.07101099193096161,0.025655584409832954,0.05405998229980469
1731409974726389200,6.89638916015625,-0.072232685983181,0.023212196305394173,0.05650337040424347
1731409974736194800,6.90619482421875,-0.06856760382652283,0.01832541823387146,0.050394900143146515
1731409974746001200,6.916001220703125,-0.06490252166986465,0.010995250195264816,0.04306473210453987
1731409974755806700,6.925806640625,-0.05757235363125801,0.01588202826678753,0.029626091942191124
1731409974765611500,6.935611572265625,-0.045355409383773804,0.021990500390529633,0.0198525357991457
1731409974775417000,6.9454169921875,-0.031916771084070206,0.024433890357613564,0.013744063675403595
1731409974785223400,6.955223388671875,-0.02214321307837963,0.024433890357613564,0.010078979656100273
1731409974795029000,6.965029052734375,-0.01847812905907631,0.025655584409832954,0.011300674639642239
1731409974804833800,6.974833740234375,-0.014813045971095562,0.024433890357613564,0.014965757727622986
1731409974814639400,6.984639404296875,-0.008704573847353458,0.026877280324697495,0.0198525357991457
1731409974824445700,6.99444580078125,-0.00259610079228878,0.025655584409832954,0.029626091942191124
1731409974834251500,7.00425146484375,0.0010689827613532543,0.025655584409832954,0.03817795217037201
1731409974844056000,7.01405615234375,0.0022906772792339325,0.025655584409832954,0.04550812020897865
1731409974853862000,7.02386181640625,0.004734066314995289,0.029320668429136276,0.049173206090927124
1731409974863668200,7.033668212890625,0.0022906772792339325,0.028098974376916885,0.0528382882475853
1731409974873473800,7.043473876953125,-0.001374406274408102,0.02076880633831024,0.05772506445646286
1731409974883278600,7.053278564453125,-0.008704573847353458,0.021990500390529633,0.06139015033841133
1731409974893084200,7.063084228515625,-0.016034740954637527,0.028098974376916885,0.06261184066534042
1731409974902890500,7.072890380859375,-0.025808297097682953,0.03542914241552353,0.05894676223397255
1731409974912696000,7.082696044921875,-0.03558185324072838,0.04031591862440109,0.05772506445646286
1731409974922500900,7.0925009765625,-0.04413371533155441,0.043981000781059265,0.0528382882475853
1731409974932306400,7.102306396484375,-0.05390727147459984,0.042759306728839874,0.046729814261198044
1731409974942112800,7.11211279296875,-0.06001574173569679,0.04031591862440109,0.0393996499478817
1731409974951918300,7.12191845703125,-0.06490252166986465,0.0390942245721817,0.033291175961494446
1731409974961723100,7.13172314453125,-0.06612421572208405,0.03665083646774292,0.030847785994410515
1731409974971528700,7.14152880859375,-0.06612421572208405,0.03665083646774292,0.029626091942191124
1731409974981335300,7.151335205078125,-0.06368082761764526,0.03298575058579445,0.029626091942191124
1731409974991140900,7.161140869140625,-0.06368082761764526,0.030542362481355667,0.030847785994410515
1731409975000945700,7.170945556640625,-0.072232685983181,0.01832541823387146,0.03451287001371384
1731409975010751200,7.180751220703125,-0.07345438003540039,0.02076880633831024,0.032069481909275055
1731409975020557600,7.1905576171875,-0.072232685983181,0.025655584409832954,0.02473931387066841
1731409975030363100,7.200363037109375,-0.072232685983181,0.01832541823387146,0.0198525357991457
1731409975040168000,7.21016796875,-0.072232685983181,0.013438640162348747,0.017409147694706917
1731409975049973500,7.219973388671875,-0.06856760382652283,0.010995250195264816,0.017409147694706917
1731409975059779800,7.22977978515625,-0.06245913356542587,0.010995250195264816,0.017409147694706917
1731409975069585400,7.23958544921875,-0.05635065957903862,0.010995250195264816,0.016187451779842377
1731409975079390200,7.24939013671875,-0.047798797488212585,0.008551862090826035,0.017409147694706917
1731409975089195800,7.25919580078125,-0.04413371533155441,0.0024433890357613564,0.017409147694706917
1731409975099002400,7.26900244140625,-0.03924693539738655,-0.0036650835536420345,0.01252236869186163
1731409975108807700,7.2788076171875,-0.0331384651362896,-0.007330167107284069,0.006413896102458239
1731409975118612500,7.288612548828125,-0.030695075169205666,-0.012216945178806782,0.0015271181473508477
1731409975128418300,7.298418212890625,-0.027029991149902344,-0.02076880633831024,-0.004581354558467865
1731409975138224600,7.308224609375,-0.023364907130599022,-0.028098974376916885,-0.01435491070151329
1731409975148030200,7.3180302734375,-0.01969982497394085,-0.01954711228609085,-0.02901524491608143
1731409975157835000,7.3278349609375,-0.02214321307837963,-0.0012216945178806782,-0.041232191026210785
1731409975167640600,7.337640625,-0.025808297097682953,0.02076880633831024,-0.0522274412214756
1731409975177447000,7.347447021484375,-0.03436015918850899,0.028098974376916885,-0.055892523378133774
1731409975187252500,7.35725244140625,-0.03802524134516716,0.024433890357613564,-0.057114217430353165
1731409975197057300,7.367057373046875,-0.04169032722711563,0.013438640162348747,-0.058335911482572556
1731409975206862800,7.37686279296875,-0.04291202127933502,0,-0.05344913527369499
1731409975216669400,7.38666943359375,-0.05024218559265137,-0.010995250195264816,-0.04489727318286896
1731409975226474800,7.396474853515625,-0.05757235363125801,-0.024433890357613564,-0.03512371703982353
1731409975236279600,7.406279541015625,-0.06490252166986465,-0.030542362481355667,-0.025350160896778107
1731409975246085400,7.41608544921875,-0.07345438003540039,-0.025655584409832954,-0.020463382825255394
1731409975255891700,7.4258916015625,-0.07711946964263916,-0.004886778071522713,-0.016798298805952072
1731409975265697300,7.435697265625,-0.08322793990373611,0.012216945178806782,-0.010689826682209969
1731409975275502000,7.445502197265625,-0.09300149232149124,0.014660334214568138,-0.004581354558467865
1731409975285307600,7.4553076171875,-0.10033166408538818,0.008551862090826035,-0.0009162708884105086
1731409975295114000,7.465114013671875,-0.10644013434648514,0.004886778071522713,-0.0009162708884105086
1731409975304919800,7.474919921875,-0.1113269105553627,0.0036650835536420345,-0.009468132629990578
1731409975314724400,7.484724365234375,-0.11743538826704025,0.0024433890357613564,-0.013133215717971325
1731409975324530200,7.4945302734375,-0.12720894813537598,0.0036650835536420345,-0.009468132629990578
1731409975334336500,7.50433642578125,-0.13209572434425354,0.010995250195264816,0.002748812548816204
1731409975344142000,7.51414208984375,-0.13576079905033112,0.01832541823387146,0.013744063675403595
1731409975353947000,7.52394677734375,-0.13209572434425354,0.02076880633831024,0.0198525357991457
1731409975363752400,7.53375244140625,-0.1247655525803566,0.014660334214568138,0.018630841746926308
1731409975373558800,7.543558837890625,-0.12232216447591782,0.007330167107284069,0.029626091942191124
1731409975383364400,7.5533642578125,-0.12110047042369843,-0.0012216945178806782,0.0393996499478817
1731409975393169200,7.563169189453125,-0.11865708231925964,-0.0036650835536420345,0.0393996499478817
1731409975402975000,7.57297509765625,-0.11621369421482086,-0.007330167107284069,0.04184303805232048
1731409975412781300,7.58278125,-0.10277505218982697,-0.0024433890357613564,0.032069481909275055
1731409975422587000,7.5925869140625,-0.0856713280081749,0.010995250195264816,0.02229592576622963
1731409975432391700,7.6023916015625,-0.06978929787874222,0.01832541823387146,0.011300674639642239
1731409975442197200,7.612197265625,-0.06245913356542587,0.01588202826678753,0.00030542362947016954
1731409975452003600,7.622003662109375,-0.05635065957903862,0.02076880633831024,-0.01435491070151329
1731409975461809200,7.63180908203125,-0.05024218559265137,0.023212196305394173,-0.026571854948997498
1731409975471614000,7.641614013671875,-0.04169032722711563,0.028098974376916885,-0.03390202298760414
1731409975481419800,7.651419677734375,-0.0331384651362896,0.03176405653357506,-0.038788799196481705
1731409975491226000,7.66122607421875,-0.027029991149902344,0.026877280324697495,-0.041232191026210785
1731409975501031700,7.67103173828125,-0.024586603045463562,0.02076880633831024,-0.042453885078430176
1731409975510836500,7.68083642578125,-0.02214321307837963,0.012216945178806782,-0.038788799196481705
1731409975520642000,7.69064208984375,-0.023364907130599022,0.0036650835536420345,-0.026571854948997498
1731409975530448400,7.700448486328125,-0.023364907130599022,-0.010995250195264816,-0.019241688773036003
1731409975540254200,7.710254150390625,-0.027029991149902344,-0.024433890357613564,-0.013133215717971325
1731409975550058800,7.720058837890625,-0.029473381116986275,-0.03665083646774292,-0.004581354558467865
1731409975559864600,7.729864501953125,-0.0331384651362896,-0.047646086663007736,0.0015271181473508477
1731409975569671000,7.7396708984375,-0.03680354729294777,-0.05864133685827255,0.00519220158457756
1731409975579476500,7.7494765625,-0.04046862944960594,-0.062306419014930725,0.002748812548816204
1731409975589281300,7.75928125,-0.04413371533155441,-0.0647498071193695,-0.009468132629990578
1731409975599086800,7.7690869140625,-0.047798797488212585,-0.0659715011715889,-0.024128466844558716
1731409975608893200,7.77889306640625,-0.05268557742238045,-0.07330167293548584,-0.03634541109204292
1731409975618699000,7.788698974609375,-0.06123743951320648,-0.08429691940546036,-0.04489727318286896
1731409975628503600,7.798503662109375,-0.06490252166986465,-0.09651386737823486,-0.055892523378133774
1731409975638309400,7.808309326171875,-0.06856760382652283,-0.10384403169155121,-0.06322269141674042
1731409975648115700,7.81811572265625,-0.06612421572208405,-0.10140064358711243,-0.0656660795211792
1731409975657921300,7.82792138671875,-0.05635065957903862,-0.09284878522157669,-0.07055285573005676
1731409975667726000,7.83772607421875,-0.047798797488212585,-0.08674030750989914,-0.07299624383449554
1731409975677531600,7.84753173828125,-0.03802524134516716,-0.08551861345767975,-0.08032641559839249
1731409975687338200,7.857338134765625,-0.029473381116986275,-0.09040539711713791,-0.08154810965061188
1731409975697143800,7.867143798828125,-0.02092151902616024,-0.0916270911693573,-0.0778830274939537
1731409975706948600,7.876948486328125,-0.00992626789957285,-0.08674030750989914,-0.08032641559839249
1731409975716754200,7.886754150390625,-0.00015271181473508477,-0.07452336698770523,-0.08765657991170883
1731409975726560500,7.896560546875,0.007177455350756645,-0.06352811306715012,-0.09498675167560577
1731409975736366300,7.906366455078125,0.014507622458040714,-0.05741964280605316,-0.10109522193670273
1731409975746171000,7.9161708984375,0.020616095513105392,-0.05497625470161438,-0.1047603040933609
1731409975755976700,7.925976806640625,0.029167955741286278,-0.0525328628718853,-0.10598199814558029
1731409975765783000,7.935782958984375,0.03771981969475746,-0.045202698558568954,-0.10231691598892212
1731409975775588600,7.945588623046875,0.0462716780602932,-0.03298575058579445,-0.09743013978004456
1731409975785393400,7.955393310546875,0.04504998400807381,-0.025655584409832954,-0.09743013978004456
1731409975795199000,7.965198974609375,0.04504998400807381,-0.023212196305394173,-0.09498675167560577
1731409975805005600,7.975005615234375,0.04016320779919624,-0.021990500390529633,-0.091321662068367
1731409975814811100,7.98481103515625,0.03649812191724777,-0.01832541823387146,-0.08643488585948944
1731409975824616000,7.994615966796875,0.03161134570837021,-0.021990500390529633,-0.07299624383449554
1731409975834421500,8.00442138671875,0.029167955741286278,-0.028098974376916885,-0.055892523378133774
1731409975844228000,8.01422802734375,0.030389651656150818,-0.030542362481355667,-0.03512371703982353
1731409975854033400,8.024033447265625,0.03161134570837021,-0.030542362481355667,-0.015576604753732681
1731409975863838500,8.03383837890625,0.027946261689066887,-0.030542362481355667,0.0015271181473508477
1731409975873644000,8.04364404296875,0.025502873584628105,-0.030542362481355667,0.018630841746926308
1731409975883450400,8.053450439453124,0.025502873584628105,-0.026877280324697495,0.032069481909275055
1731409975893256200,8.063256103515625,0.03161134570837021,-0.009773556143045425,0.033291175961494446
1731409975903060700,8.073060791015624,0.03894151374697685,0.010995250195264816,0.017409147694706917
1731409975912866600,8.082866455078126,0.042606595903635025,0.02076880633831024,-0.004581354558467865
1731409975922673000,8.0926728515625,0.04504998400807381,0.01954711228609085,-0.021685076877474785
1731409975932478500,8.102478515625,0.04016320779919624,0.01588202826678753,-0.02901524491608143
1731409975942283300,8.112283203125,0.04016320779919624,0.01832541823387146,-0.037567105144262314
1731409975952089000,8.122089111328124,0.041384901851415634,0.024433890357613564,-0.04367557913064957
1731409975961895400,8.1318955078125,0.043828289955854416,0.025655584409832954,-0.042453885078430176
1731409975971701000,8.141700927734375,0.043828289955854416,0.021990500390529633,-0.03268032893538475
1731409975981505800,8.151505859375,0.04016320779919624,0.01954711228609085,-0.015576604753732681
1731409975991311400,8.161311279296875,0.03405473381280899,0.01710372418165207,0.003970507066696882
1731409976001118000,8.171117919921874,0.025502873584628105,0.009773556143045425,0.02229592576622963
1731409976010923500,8.180923583984375,0.01572931744158268,-0.0036650835536420345,0.04184303805232048
1731409976020728300,8.190728271484375,0.012064233422279358,-0.01832541823387146,0.050394900143146515
1731409976030534000,8.200533935546876,0.009620844386518002,-0.03420744836330414,0.05650337040424347
1731409976040340500,8.210340576171875,0.0010689827613532543,-0.05008947476744652,0.07360709458589554
1731409976050146000,8.22014599609375,-0.00015271181473508477,-0.047646086663007736,0.08093725889921188
1731409976059950800,8.229950927734375,0.0010689827613532543,-0.047646086663007736,0.08338065445423126
1731409976069756400,8.23975634765625,0.0010689827613532543,-0.0525328628718853,0.09071081876754761
1731409976079562800,8.249562744140626,0.009620844386518002,-0.03787253051996231,0.08948912471532822
1731409976089368600,8.25936865234375,0.020616095513105392,-0.012216945178806782,0.08582404255867004
1731409976099173400,8.26917333984375,0.03527642786502838,0.009773556143045425,0.08215895295143127
1731409976108979000,8.27897900390625,0.043828289955854416,0.03176405653357506,0.07116370648145676
1731409976118785300,8.288785400390625,0.05482354015111923,0.05986303091049194,0.050394900143146515
1731409976128591000,8.298591064453126,0.062153708189725876,0.07452336698770523,0.03695625811815262
1731409976138395600,8.308395751953125,0.06948387622833252,0.07696675509214401,0.028404397889971733
1731409976148201500,8.318201416015626,0.07437065243721008,0.07696675509214401,0.025961007922887802
1731409976158007800,8.3280078125,0.07559234648942947,0.07452336698770523,0.028404397889971733
1731409976167813600,8.337813720703124,0.07803573459386826,0.06719319522380829,0.03451287001371384
1731409976177618200,8.3476181640625,0.08047912269830704,0.05986303091049194,0.04306473210453987
1731409976187424000,8.357424072265625,0.08170082420110703,0.05375456064939499,0.05405998229980469
1731409976197230300,8.367230224609376,0.0853659063577652,0.04886778071522713,0.06261184066534042
1731409976207036000,8.377035888671875,0.08658760040998459,0.04153761267662048,0.07238540053367615
1731409976216840700,8.3868408203125,0.0841442123055458,0.03298575058579445,0.07971556484699249
1731409976226646500,8.396646484375,0.07925742864608765,0.023212196305394173,0.08460234850645065
1731409976236452900,8.406452880859375,0.07681404054164886,0.012216945178806782,0.08704573661088943
1731409976246258400,8.416258544921876,0.07681404054164886,0.004886778071522713,0.08582404255867004
1731409976256063200,8.426063232421875,0.07925742864608765,0.0012216945178806782,0.07971556484699249
1731409976265869000,8.435869140625,0.08780929446220398,-0.0012216945178806782,0.06994201242923737
1731409976275675400,8.44567529296875,0.09269607067108154,-0.0012216945178806782,0.05772506445646286
1731409976285481000,8.45548095703125,0.10002623498439789,-0.0024433890357613564,0.04428642615675926
1731409976295285800,8.46528564453125,0.10613471269607544,-0.008551862090826035,0.030847785994410515
1731409976305091600,8.475091552734375,0.10857810080051422,-0.010995250195264816,0.02229592576622963
1731409976314898000,8.48489794921875,0.111021488904953,-0.0024433890357613564,0.008857285603880882
1731409976324703500,8.494703369140625,0.11835165321826935,0.0036650835536420345,-0.004581354558467865
1731409976334508300,8.50450830078125,0.12323843687772751,0.008551862090826035,-0.026571854948997498
1731409976344314000,8.514314208984375,0.1256818175315857,0.025655584409832954,-0.04734066128730774
1731409976354120400,8.524120361328125,0.12201674282550812,0.047646086663007736,-0.057114217430353165
1731409976363926000,8.533926025390626,0.11590826511383057,0.07085828483104706,-0.06444438546895981
1731409976373730800,8.543730712890625,0.12201674282550812,0.09773556143045425,-0.059557609260082245
1731409976383536600,8.55353662109375,0.12690351903438568,0.11483928561210632,-0.04734066128730774
1731409976393343000,8.563343017578125,0.12690351903438568,0.11606097966432571,-0.038788799196481705
1731409976403148500,8.5731484375,0.1244601309299469,0.10384403169155121,-0.03512371703982353
1731409976412953300,8.582953369140625,0.11957334727048874,0.08918370306491852,-0.03512371703982353
1731409976422759200,8.59275927734375,0.11712995916604996,0.0781884491443634,-0.03268032893538475
1731409976432565500,8.6025654296875,0.1122431829571724,0.06841489672660828,-0.024128466844558716
1731409976442371000,8.61237109375,0.10613471269607544,0.05619794875383377,-0.009468132629990578
1731409976452176000,8.62217578125,0.10002623498439789,0.05008947476744652,0.00519220158457756
1731409976461981700,8.631981689453125,0.09147437661886215,0.046424392610788345,0.014965757727622986
1731409976471788000,8.6417880859375,0.0853659063577652,0.04031591862440109,0.02229592576622963
1731409976481593600,8.651593505859376,0.08047912269830704,0.03176405653357506,0.029626091942191124
1731409976491398400,8.6613984375,0.07437065243721008,0.021990500390529633,0.033291175961494446
1731409976501204200,8.671204345703124,0.06459710001945496,0.010995250195264816,0.03695625811815262
1731409976511010600,8.681010498046875,0.05360184609889984,0.0012216945178806782,0.03817795217037201
1731409976520816400,8.69081640625,0.042606595903635025,-0.0036650835536420345,0.03817795217037201
1731409976530621200,8.70062109375,0.03161134570837021,-0.010995250195264816,0.03695625811815262
1731409976540426800,8.7104267578125,0.020616095513105392,-0.025655584409832954,0.03451287001371384
1731409976550233000,8.720233154296874,0.012064233422279358,-0.03542914241552353,0.032069481909275055
1731409976560039000,8.730038818359375,0.004734066314995289,-0.04153761267662048,0.025961007922887802
1731409976569843700,8.73984375,-0.00015271181473508477,-0.047646086663007736,0.013744063675403595
1731409976579649300,8.749649169921875,-0.011147962883114815,-0.05986303091049194,-0.0009162708884105086
1731409976589455600,8.75945556640625,-0.02092151902616024,-0.0794101431965828,-0.01435491070151329
1731409976599261400,8.769261474609374,-0.027029991149902344,-0.10017894953489304,-0.022906772792339325
1731409976609066200,8.779066162109375,-0.030695075169205666,-0.1172826737165451,-0.03634541109204292
1731409976618871800,8.788871826171874,-0.028251685202121735,-0.130721315741539,-0.05344913527369499
1731409976628678100,8.79867822265625,-0.027029991149902344,-0.14171656966209412,-0.06444438546895981
1731409976638484000,8.80848388671875,-0.025808297097682953,-0.15515519678592682,-0.07421794533729553
1731409976648288800,8.818288818359376,-0.028251685202121735,-0.16737215220928192,-0.0791047215461731
1731409976658094300,8.82809423828125,-0.025808297097682953,-0.16737215220928192,-0.08276980370283127
1731409976667901000,8.83790087890625,-0.02092151902616024,-0.1588202863931656,-0.091321662068367
1731409976677706500,8.84770654296875,-0.013591351918876171,-0.14782503247261047,-0.10353861004114151
1731409976687511300,8.85751123046875,-0.001374406274408102,-0.14782503247261047,-0.1169772520661354
1731409976697316900,8.86731689453125,0.009620844386518002,-0.15271180868148804,-0.1169772520661354
1731409976707123500,8.87712353515625,0.01572931744158268,-0.1575985997915268,-0.1047603040933609
1731409976716929000,8.886928955078124,0.023059483617544174,-0.16492876410484314,-0.09743013978004456
1731409976726733800,8.89673388671875,0.03405473381280899,-0.16004198789596558,-0.08399149775505066
1731409976736539400,8.906539306640624,0.042606595903635025,-0.14660334587097168,-0.06444438546895981
1731409976746346000,8.916345947265626,0.05482354015111923,-0.12216944992542267,-0.05467082932591438
1731409976756151600,8.926151611328125,0.06826218217611313,-0.08918370306491852,-0.04489727318286896
1731409976765956400,8.935956298828126,0.07925742864608765,-0.0659715011715889,-0.03268032893538475
1731409976775762200,8.94576220703125,0.08658760040998459,-0.046424392610788345,-0.016798298805952072
1731409976785568500,8.955568603515625,0.08780929446220398,-0.024433890357613564,-0.010689826682209969
1731409976795374000,8.9653740234375,0.08658760040998459,0,-0.010689826682209969
1731409976805179000,8.975178955078125,0.08170082420110703,0.013438640162348747,-0.009468132629990578
1731409976814984700,8.984984619140626,0.07070557028055191,0.01710372418165207,-0.008246437646448612
1731409976824791000,8.994791015625,0.05238015204668045,0.01588202826678753,-0.003359660040587187
1731409976834596600,9.0045966796875,0.03405473381280899,0.012216945178806782,0.00030542362947016954
1731409976844401400,9.0144013671875,0.021837789565324783,0.010995250195264816,0.002748812548816204
1731409976854207200,9.024207275390625,0.014507622458040714,0.013438640162348747,0.007635590620338917
1731409976864013600,9.034013671875,0.005955760832875967,0.01710372418165207,0.013744063675403595
1731409976873819400,9.0438193359375,-0.001374406274408102,0.01954711228609085,0.02229592576622963
1731409976883624200,9.053624267578124,-0.011147962883114815,0.01710372418165207,0.033291175961494446
1731409976893429800,9.0634296875,-0.016034740954637527,0.01588202826678753,0.04184303805232048
1731409976903236000,9.073236083984375,-0.01969982497394085,0.01588202826678753,0.04306473210453987
1731409976913042000,9.0830419921875,-0.01969982497394085,0.01832541823387146,0.03817795217037201
1731409976922846700,9.0928466796875,-0.01969982497394085,0.02076880633831024,0.03573456406593323
1731409976932652300,9.10265234375,-0.01725643500685692,0.028098974376916885,0.027182703837752342
1731409976942459000,9.112458984375,-0.011147962883114815,0.0390942245721817,0.01252236869186163
1731409976952264400,9.122264404296875,-0.0050394898280501366,0.043981000781059265,-0.0009162708884105086
1731409976962069200,9.1320693359375,-0.001374406274408102,0.04153761267662048,-0.010689826682209969
1731409976971874800,9.141874755859375,0.007177455350756645,0.04886778071522713,-0.016798298805952072
1731409976981681400,9.151681396484374,0.012064233422279358,0.06841489672660828,-0.019241688773036003
1731409976991487000,9.161487060546875,0.019394399598240852,0.08429691940546036,-0.015576604753732681
1731409977001291800,9.171291748046874,0.025502873584628105,0.09895725548267365,-0.013133215717971325
1731409977011097600,9.18109765625,0.030389651656150818,0.10140064358711243,-0.011911521665751934
1731409977020904000,9.190904052734375,0.03405473381280899,0.09895725548267365,-0.005803049076348543
1731409977030709500,9.20070947265625,0.025502873584628105,0.09651386737823486,0.007635590620338917
1731409977040514300,9.210514404296875,0.024281177669763565,0.09651386737823486,0.02351761981844902
1731409977050320100,9.220320068359374,0.021837789565324783,0.09651386737823486,0.03695625811815262
1731409977060126500,9.23012646484375,0.01817270554602146,0.09651386737823486,0.04062134400010109
1731409977069932000,9.23993212890625,0.007177455350756645,0.09407047927379608,0.03695625811815262
1731409977079736800,9.24973681640625,-0.008704573847353458,0.08674030750989914,0.030847785994410515
1731409977089542700,9.259542724609375,-0.023364907130599022,0.07452336698770523,0.032069481909275055
1731409977099349000,9.269348876953124,-0.03802524134516716,0.06352811306715012,0.04062134400010109
1731409977109154800,9.27915478515625,-0.05390727147459984,0.05131116881966591,0.04428642615675926
1731409977118959600,9.288959716796874,-0.06856760382652283,0.04886778071522713,0.046729814261198044
1731409977128765200,9.29876513671875,-0.08078455179929733,0.04886778071522713,0.05405998229980469
1731409977138571500,9.308571533203125,-0.08689302206039429,0.05619794875383377,0.06016845628619194
1731409977148377300,9.31837744140625,-0.09055810421705246,0.062306419014930725,0.06383354216814041
1731409977158182100,9.32818212890625,-0.09177979826927185,0.06719319522380829,0.06261184066534042
1731409977167987700,9.33798779296875,-0.09300149232149124,0.07452336698770523,0.05772506445646286
1731409977177794300,9.347794189453126,-0.08933641016483307,0.08551861345767975,0.049173206090927124
1731409977187600000,9.357599853515625,-0.0844496339559555,0.09407047927379608,0.0393996499478817
1731409977197404700,9.36740478515625,-0.07956285774707794,0.09407047927379608,0.029626091942191124
1731409977207210200,9.377210205078125,-0.07101099193096161,0.09284878522157669,0.016187451779842377
1731409977217016800,9.387016845703124,-0.06245913356542587,0.09284878522157669,0.007635590620338917
1731409977226822400,9.396822509765625,-0.05024218559265137,0.09651386737823486,0.00030542362947016954
1731409977236627200,9.406627197265625,-0.04291202127933502,0.09773556143045425,-0.009468132629990578
1731409977246432800,9.416432861328126,-0.03924693539738655,0.09407047927379608,-0.020463382825255394
1731409977256239400,9.4262392578125,-0.03802524134516716,0.08429691940546036,-0.027793550863862038
1731409977266045000,9.436044921875,-0.03802524134516716,0.06963659077882767,-0.03145863488316536
1731409977275849700,9.445849609375,-0.03802524134516716,0.05375456064939499,-0.03390202298760414
1731409977285655600,9.455655517578125,-0.03802524134516716,0.045202698558568954,-0.040010496973991394
1731409977295462000,9.4654619140625,-0.03802524134516716,0.03542914241552353,-0.04734066128730774
1731409977305267500,9.475267333984375,-0.03558185324072838,0.021990500390529633,-0.0522274412214756
1731409977315072300,9.485072265625,-0.03924693539738655,0.009773556143045425,-0.05344913527369499
1731409977324878000,9.494878173828125,-0.04291202127933502,-0.004886778071522713,-0.04734066128730774
1731409977334684400,9.504684326171875,-0.04291202127933502,-0.01588202826678753,-0.040010496973991394
1731409977344490200,9.514490234375,-0.03924693539738655,-0.025655584409832954,-0.038788799196481705
1731409977354295000,9.524294921875,-0.031916771084070206,-0.04031591862440109,-0.038788799196481705
1731409977364100600,9.5341005859375,-0.028251685202121735,-0.05131116881966591,-0.03145863488316536
1731409977373907000,9.543906982421875,-0.027029991149902344,-0.05986303091049194,-0.01435491070151329
1731409977383712800,9.553712646484374,-0.02214321307837963,-0.05619794875383377,-0.010689826682209969
1731409977393517600,9.563517578125,-0.016034740954637527,-0.062306419014930725,-0.0021379655227065086
1731409977403323100,9.5733232421875,-0.011147962883114815,-0.0647498071193695,0.006413896102458239
1731409977413129700,9.583129638671876,0.004734066314995289,-0.05375456064939499,0.00030542362947016954
1731409977422935300,9.592935302734375,0.021837789565324783,-0.04031591862440109,-0.008246437646448612
1731409977432740000,9.602739990234374,0.029167955741286278,-0.03787253051996231,-0.011911521665751934
1731409977442545700,9.612545654296875,0.0328330397605896,-0.03420744836330414,-0.020463382825255394
1731409977452352300,9.622352294921875,0.03649812191724777,-0.028098974376916885,-0.03390202298760414
1731409977462157800,9.63215771484375,0.03771981969475746,-0.029320668429136276,-0.042453885078430176
1731409977471962600,9.641962646484375,0.041384901851415634,-0.030542362481355667,-0.05100574716925621
1731409977481768200,9.651768310546874,0.04016320779919624,-0.029320668429136276,-0.06200099736452103
1731409977491574800,9.66157470703125,0.03527642786502838,-0.03665083646774292,-0.07177454978227615
1731409977501380400,9.67138037109375,0.029167955741286278,-0.045202698558568954,-0.0778830274939537
1731409977511185200,9.68118505859375,0.021837789565324783,-0.05619794875383377,-0.08032641559839249
1731409977520991000,9.690990966796875,0.01695101149380207,-0.05986303091049194,-0.0778830274939537
1731409977530797300,9.70079736328125,0.013285927474498749,-0.0659715011715889,-0.07177454978227615
1731409977540603000,9.710602783203125,0.009620844386518002,-0.06841489672660828,-0.06200099736452103
1731409977550407700,9.72040771484375,0.005955760832875967,-0.07207997888326645,-0.0522274412214756
1731409977560213500,9.730213623046875,0.0010689827613532543,-0.0781884491443634,-0.041232191026210785
1731409977570019800,9.740019775390625,-0.0050394898280501366,-0.08063183724880219,-0.03512371703982353
1731409977579825400,9.749825439453126,-0.012369656935334206,-0.08185353130102158,-0.03268032893538475
1731409977589630200,9.759630126953125,-0.01725643500685692,-0.08307522535324097,-0.03023693896830082
1731409977599436000,9.76943603515625,-0.02214321307837963,-0.08063183724880219,-0.03023693896830082
1731409977609242400,9.779242431640625,-0.027029991149902344,-0.0781884491443634,-0.03390202298760414
1731409977619048000,9.7890478515625,-0.025808297097682953,-0.0794101431965828,-0.037567105144262314
1731409977628852700,9.798852783203126,-0.02092151902616024,-0.0781884491443634,-0.040010496973991394
1731409977638658600,9.808658447265625,-0.016034740954637527,-0.06963659077882767,-0.041232191026210785
1731409977648465000,9.81846484375,-0.00992626789957285,-0.05375456064939499,-0.04611896723508835
1731409977658270700,9.828270751953125,0.0010689827613532543,-0.0390942245721817,-0.0522274412214756
1731409977668075500,9.838075439453124,0.008399149402976036,-0.028098974376916885,-0.06200099736452103
1731409977677881000,9.847881103515626,0.012064233422279358,-0.028098974376916885,-0.07177454978227615
1731409977687687400,9.8576875,0.014507622458040714,-0.026877280324697495,-0.07177454978227615
1731409977697493200,9.8674931640625,0.013285927474498749,-0.026877280324697495,-0.06933116167783737
1731409977707298000,9.877298095703125,0.01695101149380207,-0.028098974376916885,-0.06200099736452103
1731409977717103600,9.887103515625,0.020616095513105392,-0.030542362481355667,-0.05344913527369499
1731409977726910200,9.89691015625,0.021837789565324783,-0.03420744836330414,-0.04611896723508835
1731409977736715800,9.9067158203125,0.024281177669763565,-0.04031591862440109,-0.041232191026210785
1731409977746520600,9.9165205078125,0.025502873584628105,-0.042759306728839874,-0.03512371703982353
1731409977756326100,9.926326171875,0.021837789565324783,-0.046424392610788345,-0.03145863488316536
1731409977766132700,9.9361328125,0.020616095513105392,-0.05008947476744652,-0.026571854948997498
1731409977775938300,9.945938232421875,0.019394399598240852,-0.05131116881966591,-0.022906772792339325
1731409977785743000,9.9557431640625,0.019394399598240852,-0.047646086663007736,-0.018019994720816612
1731409977795548700,9.965548583984376,0.01817270554602146,-0.042759306728839874,-0.009468132629990578
1731409977805355300,9.975355224609375,0.019394399598240852,-0.03298575058579445,0.00030542362947016954
1731409977815160800,9.985160888671874,0.023059483617544174,-0.02076880633831024,0.00519220158457756
1731409977824965600,9.994965576171875,0.024281177669763565,-0.004886778071522713,0.006413896102458239
1731409977834771200,10.004771240234374,0.027946261689066887,0.009773556143045425,0.0015271181473508477
1731409977844577800,10.014577880859376,0.030389651656150818,0.01832541823387146,-0.0021379655227065086
1731409977854383400,10.02438330078125,0.029167955741286278,0.03298575058579445,-0.005803049076348543
1731409977864188200,10.034188232421876,0.029167955741286278,0.04886778071522713,-0.009468132629990578
1731409977873994000,10.043993896484375,0.027946261689066887,0.0659715011715889,-0.010689826682209969
1731409977883800300,10.05380029296875,0.026724567636847496,0.08429691940546036,-0.011911521665751934
1731409977893606000,10.06360595703125,0.024281177669763565,0.10384403169155121,-0.01435491070151329
1731409977903410700,10.07341064453125,0.019394399598240852,0.11972606182098389,-0.015576604753732681
1731409977913216500,10.083216552734376,0.012064233422279358,0.12827792763710022,-0.011911521665751934
1731409977923022800,10.09302294921875,0.0035123717971146107,0.12583453953266144,-0.005803049076348543
1731409977932828400,10.102828369140624,0.0010689827613532543,0.11483928561210632,0.0015271181473508477
1731409977942633200,10.11263330078125,-0.001374406274408102,0.10262233763933182,0.008857285603880882
1731409977952439000,10.12243896484375,-0.008704573847353458,0.09284878522157669,0.010078979656100273
1731409977962245400,10.132245361328126,-0.01725643500685692,0.08185353130102158,0.01252236869186163
1731409977972051000,10.142051025390625,-0.02214321307837963,0.06963659077882767,0.016187451779842377
1731409977981855700,10.151855712890624,-0.027029991149902344,0.05986303091049194,0.018630841746926308
1731409977991661600,10.16166162109375,-0.030695075169205666,0.05619794875383377,0.02107422985136509
1731409978001468000,10.171468017578125,-0.03436015918850899,0.04886778071522713,0.028404397889971733
1731409978011273700,10.181273681640626,-0.03436015918850899,0.045202698558568954,0.032069481909275055
1731409978021078500,10.19107861328125,-0.031916771084070206,0.042759306728839874,0.030847785994410515
1731409978030884000,10.200884033203126,-0.025808297097682953,0.03787253051996231,0.02351761981844902
1731409978040690400,10.2106904296875,-0.02092151902616024,0.03542914241552353,0.02107422985136509
1731409978050496300,10.220496337890625,-0.02214321307837963,0.03176405653357506,0.027182703837752342
1731409978060301000,10.230301025390625,-0.024586603045463562,0.03665083646774292,0.017409147694706917
1731409978070106600,10.240106689453125,-0.027029991149902344,0.03665083646774292,0.010078979656100273
1731409978079913200,10.249913330078124,-0.030695075169205666,0.03665083646774292,0.00519220158457756
1731409978089718800,10.25971875,-0.028251685202121735,0.046424392610788345,-0.011911521665751934
1731409978099523600,10.269523681640624,-0.024586603045463562,0.05619794875383377,-0.025350160896778107
1731409978109329200,10.2793291015625,-0.024586603045463562,0.0525328628718853,-0.025350160896778107
1731409978119135500,10.289135498046875,-0.030695075169205666,0.04886778071522713,-0.024128466844558716
1731409978128941300,10.29894140625,-0.03802524134516716,0.05131116881966591,-0.026571854948997498
1731409978138746000,10.30874609375,-0.04046862944960594,0.0525328628718853,-0.025350160896778107
1731409978148551700,10.3185517578125,-0.04413371533155441,0.05741964280605316,-0.016798298805952072
1731409978158358300,10.328358154296875,-0.047798797488212585,0.0525328628718853,-0.005803049076348543
1731409978168163800,10.338163818359375,-0.05024218559265137,0.046424392610788345,0.006413896102458239
1731409978177968600,10.34796875,-0.05512896552681923,0.043981000781059265,0.013744063675403595
1731409978187774200,10.357774169921875,-0.0587940476834774,0.04153761267662048,0.016187451779842377
1731409978197580800,10.367580810546874,-0.06245913356542587,0.03787253051996231,0.017409147694706917
1731409978207386400,10.377386474609375,-0.06368082761764526,0.03420744836330414,0.017409147694706917
1731409978217191200,10.387191162109374,-0.06734590977430344,0.029320668429136276,0.02229592576622963
1731409978226996700,10.396996826171875,-0.07101099193096161,0.023212196305394173,0.027182703837752342
1731409978236803300,10.40680322265625,-0.06978929787874222,0.021990500390529633,0.033291175961494446
1731409978246609000,10.41660888671875,-0.06978929787874222,0.02076880633831024,0.0393996499478817
1731409978256413700,10.42641357421875,-0.06978929787874222,0.01832541823387146,0.04062134400010109
1731409978266219300,10.43621923828125,-0.06856760382652283,0.01832541823387146,0.04184303805232048
1731409978276025900,10.44602587890625,-0.06612421572208405,0.01832541823387146,0.04184303805232048
1731409978285831400,10.45583154296875,-0.06490252166986465,0.013438640162348747,0.04550812020897865
1731409978295636200,10.46563623046875,-0.06245913356542587,0.0012216945178806782,0.049173206090927124
1731409978305441800,10.47544189453125,-0.06001574173569679,-0.010995250195264816,0.051616594195365906
1731409978315248400,10.485248291015624,-0.0587940476834774,-0.014660334214568138,0.05405998229980469
1731409978325054000,10.495053955078125,-0.05635065957903862,-0.009773556143045425,0.04550812020897865
1731409978334858800,10.504858642578125,-0.05024218559265137,-0.008551862090826035,0.03573456406593323
1731409978344664300,10.514664306640626,-0.051463883370161057,-0.012216945178806782,0.028404397889971733
1731409978354471000,10.524470947265625,-0.047798797488212585,-0.021990500390529633,0.02351761981844902
1731409978364276500,10.5342763671875,-0.04291202127933502,-0.024433890357613564,0.0198525357991457
1731409978374081300,10.544081298828125,-0.04046862944960594,-0.024433890357613564,0.018630841746926308
1731409978383886800,10.553886962890624,-0.031916771084070206,-0.021990500390529633,0.016187451779842377
1731409978393693400,10.563693359375,-0.025808297097682953,-0.023212196305394173,0.014965757727622986
1731409978403499000,10.5734990234375,-0.023364907130599022,-0.025655584409832954,0.016187451779842377
1731409978413303800,10.5833037109375,-0.01969982497394085,-0.028098974376916885,0.013744063675403595
1731409978423109400,10.593109375,-0.016034740954637527,-0.028098974376916885,0.010078979656100273
1731409978432916000,10.602916015625,-0.016034740954637527,-0.030542362481355667,0.006413896102458239
1731409978442721500,10.612721435546876,-0.013591351918876171,-0.03298575058579445,0.003970507066696882
1731409978452526300,10.6225263671875,-0.011147962883114815,-0.03298575058579445,0.003970507066696882
1731409978462332000,10.632331787109376,-0.008704573847353458,-0.030542362481355667,0.002748812548816204
1731409978472138500,10.642138427734375,-0.008704573847353458,-0.028098974376916885,0.003970507066696882
1731409978481944000,10.651944091796874,-0.007482878863811493,-0.028098974376916885,0.006413896102458239
1731409978491748900,10.661748779296875,-0.007482878863811493,-0.028098974376916885,0.010078979656100273
1731409978501554400,10.671554443359375,-0.0050394898280501366,-0.024433890357613564,0.011300674639642239
1731409978511361000,10.681361083984376,-0.00259610079228878,-0.023212196305394173,0.01252236869186163
1731409978521166600,10.69116650390625,-0.0038177953101694584,-0.025655584409832954,0.018630841746926308
1731409978530971400,10.700971435546874,-0.001374406274408102,-0.025655584409832954,0.02351761981844902
1731409978540777000,10.71077685546875,0.0022906772792339325,-0.021990500390529633,0.02351761981844902
1731409978550583600,10.72058349609375,0.005955760832875967,-0.021990500390529633,0.02229592576622963
1731409978560389000,10.73038916015625,0.007177455350756645,-0.021990500390529633,0.016187451779842377
1731409978570194000,10.74019384765625,0.0035123717971146107,-0.01954711228609085,0.008857285603880882
1731409978579999500,10.74999951171875,0.0010689827613532543,-0.014660334214568138,0.0015271181473508477
1731409978589806000,10.75980615234375,-0.0038177953101694584,-0.010995250195264816,-0.004581354558467865
1731409978599611600,10.769611572265624,-0.00992626789957285,-0.007330167107284069,-0.004581354558467865
1731409978609416400,10.77941650390625,-0.01847812905907631,-0.0036650835536420345,-0.005803049076348543
1731409978619222000,10.789221923828125,-0.02214321307837963,0.0036650835536420345,-0.009468132629990578
1731409978629028600,10.799028564453126,-0.027029991149902344,0.009773556143045425,-0.01435491070151329
1731409978638834200,10.808834228515625,-0.029473381116986275,0.01710372418165207,-0.021685076877474785
1731409978648639000,10.818638916015624,-0.0331384651362896,0.024433890357613564,-0.02901524491608143
1731409978658444500,10.828444580078125,-0.03802524134516716,0.03298575058579445,-0.03268032893538475
1731409978668251100,10.838251220703125,-0.04291202127933502,0.04031591862440109,-0.03023693896830082
1731409978678056700,10.848056640625,-0.049020491540431976,0.05131116881966591,-0.03023693896830082
1731409978687861500,10.857861572265625,-0.046577103435993195,0.062306419014930725,-0.03268032893538475
1731409978697667000,10.8676669921875,-0.03924693539738655,0.062306419014930725,-0.042453885078430176
1731409978707473700,10.8774736328125,-0.0331384651362896,0.06352811306715012,-0.04489727318286896
1731409978717279200,10.887279296875,-0.027029991149902344,0.07085828483104706,-0.04489727318286896
1731409978727084000,10.897083984375,-0.02214321307837963,0.08796200156211853,-0.04734066128730774
1731409978736889600,10.9068896484375,-0.01969982497394085,0.09040539711713791,-0.04367557913064957
1731409978746696200,10.9166962890625,-0.014813045971095562,0.0916270911693573,-0.04489727318286896
1731409978756501800,10.926501708984375,-0.00259610079228878,0.09773556143045425,-0.055892523378133774
1731409978766306600,10.936306640625,0.007177455350756645,0.10262233763933182,-0.060779303312301636
1731409978776112000,10.946112060546875,0.012064233422279358,0.09284878522157669,-0.055892523378133774
1731409978785918700,10.955918701171875,0.012064233422279358,0.08674030750989914,-0.04489727318286896
1731409978795724300,10.965724365234376,0.013285927474498749,0.08063183724880219,-0.03390202298760414
1731409978805529000,10.975529052734375,0.01817270554602146,0.07330167293548584,-0.018019994720816612
1731409978815334700,10.985334716796874,0.020616095513105392,0.0647498071193695,0.002748812548816204
1731409978825141200,10.995141357421875,0.020616095513105392,0.05375456064939499,0.02351761981844902
1731409978834946800,11.00494677734375,0.019394399598240852,0.04031591862440109,0.04306473210453987
1731409978844751600,11.014751708984376,0.01817270554602146,0.03665083646774292,0.06016845628619194
1731409978854557200,11.02455712890625,0.01695101149380207,0.03787253051996231,0.06872031837701797
1731409978864363800,11.03436376953125,0.014507622458040714,0.04153761267662048,0.06994201242923737
1731409978874169300,11.04416943359375,0.004734066314995289,0.045202698558568954,0.06872031837701797
1731409978883974100,11.05397412109375,-0.0038177953101694584,0.04886778071522713,0.0662769302725792
1731409978893779700,11.06377978515625,-0.013591351918876171,0.05741964280605316,0.0650552362203598
1731409978903586300,11.07358642578125,-0.01969982497394085,0.0659715011715889,0.06261184066534042
1731409978913391900,11.083391845703124,-0.023364907130599022,0.07452336698770523,0.05772506445646286
1731409978923196700,11.09319677734375,-0.029473381116986275,0.08307522535324097,0.05528167635202408
1731409978933002200,11.103002197265624,-0.03924693539738655,0.08796200156211853,0.050394900143146515
1731409978942808800,11.112808837890626,-0.046577103435993195,0.08429691940546036,0.04306473210453987
1731409978952614400,11.122614501953125,-0.05024218559265137,0.07452336698770523,0.033291175961494446
1731409978962419200,11.132419189453126,-0.05390727147459984,0.06719319522380829,0.02351761981844902
1731409978972224800,11.142224853515625,-0.06490252166986465,0.07085828483104706,0.02229592576622963
1731409978982031400,11.15203125,-0.07467607408761978,0.08063183724880219,0.028404397889971733
1731409978991837000,11.1618369140625,-0.07834116369485855,0.08429691940546036,0.033291175961494446
1731409979001641700,11.171641845703125,-0.07467607408761978,0.07696675509214401,0.032069481909275055
1731409979011447300,11.181447265625,-0.07101099193096161,0.061084724962711334,0.027182703837752342
1731409979021254000,11.19125390625,-0.06978929787874222,0.04886778071522713,0.027182703837752342
1731409979031059500,11.2010595703125,-0.06612421572208405,0.04886778071522713,0.02473931387066841
1731409979040864300,11.2108642578125,-0.06245913356542587,0.047646086663007736,0.02473931387066841
1731409979050670000,11.220670166015625,-0.05635065957903862,0.046424392610788345,0.02473931387066841
1731409979060476400,11.230476318359376,-0.049020491540431976,0.045202698558568954,0.02229592576622963
1731409979070282000,11.240281982421875,-0.045355409383773804,0.04031591862440109,0.018630841746926308
1731409979080086800,11.250086669921876,-0.04046862944960594,0.03420744836330414,0.013744063675403595
1731409979089892400,11.259892333984375,-0.03802524134516716,0.026877280324697495,0.007635590620338917
1731409979099699000,11.269698974609375,-0.03680354729294777,0.023212196305394173,0.00030542362947016954
1731409979109504500,11.27950439453125,-0.04046862944960594,0.024433890357613564,-0.009468132629990578
1731409979119309300,11.289309326171875,-0.045355409383773804,0.029320668429136276,-0.016798298805952072
1731409979129115100,11.299115234375,-0.05024218559265137,0.03176405653357506,-0.016798298805952072
1731409979138921500,11.30892138671875,-0.0587940476834774,0.030542362481355667,-0.009468132629990578
1731409979148727000,11.31872705078125,-0.06612421572208405,0.030542362481355667,-0.0009162708884105086
1731409979158531800,11.32853173828125,-0.07345438003540039,0.03176405653357506,0.008857285603880882
1731409979168337700,11.338337646484375,-0.07711946964263916,0.03420744836330414,0.0198525357991457
1731409979178144000,11.34814404296875,-0.07956285774707794,0.04031591862440109,0.02473931387066841
1731409979187949600,11.357949462890625,-0.07956285774707794,0.05008947476744652,0.02351761981844902
1731409979197754400,11.36775439453125,-0.08200624585151672,0.05864133685827255,0.0198525357991457
1731409979207560200,11.377560302734375,-0.0844496339559555,0.061084724962711334,0.013744063675403595
1731409979217366500,11.387366455078125,-0.0844496339559555,0.061084724962711334,0.008857285603880882
1731409979227172000,11.397172119140626,-0.0844496339559555,0.05986303091049194,0.00519220158457756
1731409979236977000,11.406976806640625,-0.08200624585151672,0.061084724962711334,0.0015271181473508477
1731409979246782700,11.41678271484375,-0.08200624585151672,0.0647498071193695,-0.0021379655227065086
1731409979256589000,11.426589111328125,-0.07834116369485855,0.0647498071193695,-0.004581354558467865
1731409979266394600,11.43639453125,-0.072232685983181,0.07207997888326645,0.002748812548816204
1731409979276199400,11.446199462890625,-0.07101099193096161,0.07207997888326645,0.010078979656100273
1731409979286005200,11.456005126953125,-0.06490252166986465,0.0647498071193695,0.017409147694706917
1731409979295811600,11.4658115234375,-0.05635065957903862,0.062306419014930725,0.027182703837752342
1731409979305617200,11.4756171875,-0.047798797488212585,0.05986303091049194,0.03451287001371384
1731409979315422000,11.485421875,-0.03924693539738655,0.0647498071193695,0.03573456406593323
1731409979325227800,11.495227783203125,-0.029473381116986275,0.06719319522380829,0.030847785994410515
1731409979335034000,11.5050341796875,-0.01969982497394085,0.06719319522380829,0.018630841746926308
1731409979344840000,11.51483984375,-0.012369656935334206,0.05986303091049194,0.008857285603880882
1731409979354644500,11.52464453125,-0.008704573847353458,0.05008947476744652,0.01252236869186163
1731409979364450300,11.5344501953125,-0.0038177953101694584,0.04886778071522713,0.013744063675403595
1731409979374256600,11.544256591796875,-0.00259610079228878,0.05375456064939499,0.007635590620338917
1731409979384062500,11.5540625,-0.001374406274408102,0.046424392610788345,0.006413896102458239
1731409979393867300,11.5638671875,0.0022906772792339325,0.043981000781059265,-0.004581354558467865
1731409979403672800,11.5736728515625,0.010842538438737392,0.0525328628718853,-0.024128466844558716
1731409979413479200,11.583479248046874,0.021837789565324783,0.0525328628718853,-0.040010496973991394
1731409979423285000,11.593284912109375,0.024281177669763565,0.046424392610788345,-0.04367557913064957
1731409979433089800,11.60308984375,0.021837789565324783,0.045202698558568954,-0.05100574716925621
1731409979442895400,11.612895263671875,0.024281177669763565,0.03787253051996231,-0.060779303312301636
1731409979452702000,11.622701904296875,0.025502873584628105,0.028098974376916885,-0.0656660795211792
1731409979462507500,11.632507568359374,0.026724567636847496,0.01954711228609085,-0.06322269141674042
1731409979472312300,11.642312255859375,0.03161134570837021,0.010995250195264816,-0.059557609260082245
1731409979482118000,11.652117919921874,0.03649812191724777,0.007330167107284069,-0.058335911482572556
1731409979491924500,11.661924560546876,0.041384901851415634,0.0036650835536420345,-0.06322269141674042
1731409979501730000,11.67172998046875,0.04504998400807381,-0.0036650835536420345,-0.06688777357339859
1731409979511534800,11.681534912109376,0.0462716780602932,-0.010995250195264816,-0.06200099736452103
1731409979521340400,11.69134033203125,0.04504998400807381,-0.012216945178806782,-0.05467082932591438
1731409979531147000,11.70114697265625,0.04504998400807381,-0.007330167107284069,-0.0522274412214756
1731409979540952600,11.71095263671875,0.04749337583780289,0.0012216945178806782,-0.05100574716925621
1731409979550757400,11.72075732421875,0.04871506989002228,0.0024433890357613564,-0.04734066128730774
1731409979560563000,11.73056298828125,0.05115845799446106,0.0036650835536420345,-0.038788799196481705
1731409979570369500,11.74036962890625,0.05360184609889984,0.0036650835536420345,-0.03268032893538475
1731409979580175000,11.750175048828124,0.05115845799446106,0.006108472589403391,-0.02901524491608143
1731409979589980000,11.75997998046875,0.04749337583780289,0.004886778071522713,-0.027793550863862038
1731409979599785500,11.769785400390624,0.042606595903635025,0,-0.02901524491608143
1731409979609592000,11.779592041015626,0.03771981969475746,-0.004886778071522713,-0.020463382825255394
1731409979619397600,11.789397705078125,0.03161134570837021,-0.0036650835536420345,-0.011911521665751934
1731409979629202400,11.799202392578126,0.029167955741286278,0.0024433890357613564,-0.011911521665751934
1731409979639008300,11.80900830078125,0.029167955741286278,0.009773556143045425,-0.009468132629990578
1731409979648814600,11.818814697265625,0.027946261689066887,0.013438640162348747,-0.007024743594229221
1731409979658620200,11.8286201171875,0.029167955741286278,0.013438640162348747,0.002748812548816204
1731409979668425000,11.838425048828125,0.025502873584628105,0.010995250195264816,0.014965757727622986
1731409979678230800,11.848230712890626,0.024281177669763565,0.010995250195264816,0.02229592576622963
1731409979688037000,11.858037109375,0.023059483617544174,0.009773556143045425,0.030847785994410515
1731409979697843000,11.867843017578124,0.020616095513105392,0.010995250195264816,0.03817795217037201
1731409979707647700,11.877647705078125,0.014507622458040714,0.014660334214568138,0.0393996499478817
1731409979717453300,11.887453369140625,0.014507622458040714,0.01832541823387146,0.03817795217037201
1731409979727259600,11.897259765625,0.012064233422279358,0.02076880633831024,0.03573456406593323
1731409979737065500,11.9070654296875,0.009620844386518002,0.02076880633831024,0.032069481909275055
1731409979746870300,11.916870361328124,0.0035123717971146107,0.01954711228609085,0.02473931387066841
1731409979756675800,11.92667578125,-0.001374406274408102,0.01588202826678753,0.02229592576622963
1731409979766482400,11.936482421875,-0.0050394898280501366,0.01588202826678753,0.02229592576622963
1731409979776288000,11.9462880859375,-0.012369656935334206,0.02076880633831024,0.0198525357991457
1731409979786092800,11.9560927734375,-0.01969982497394085,0.026877280324697495,0.017409147694706917
1731409979795898400,11.9658984375,-0.023364907130599022,0.029320668429136276,0.016187451779842377
1731409979805705000,11.975705078125,-0.024586603045463562,0.03665083646774292,0.01252236869186163
1731409979815510500,11.985510498046875,-0.024586603045463562,0.04153761267662048,0.006413896102458239
1731409979825315300,11.9953154296875,-0.024586603045463562,0.04031591862440109,0.0015271181473508477
1731409979835121000,12.005120849609375,-0.028251685202121735,0.0390942245721817,-0.0021379655227065086
1731409979844927500,12.014927490234374,-0.028251685202121735,0.043981000781059265,-0.004581354558467865
1731409979854733000,12.024733154296875,-0.023364907130599022,0.04031591862440109,-0.005803049076348543
