time,seconds_elapsed,z,y,x
1731409967935957800,0.105957763671875,8.359624862670898,5.4281182289123535,0.2826521694660187
1731409967945762600,0.115762451171875,8.366803169250488,5.36351203918457,0.24167509377002716
1731409967955568000,0.125568115234375,8.388339042663574,5.284249782562256,0.2727817893028259
1731409967965374500,0.13537451171875,8.263612747192383,5.147858619689941,0.21774685382843018
1731409967975179800,0.1451796875,8.160721778869629,5.262714385986328,0.47647079825401306
1731409967984984600,0.154984619140625,8.187042236328125,5.365904808044434,0.3975076675415039
1731409967994790100,0.1647900390625,8.275577545166016,5.4951171875,0.18903298676013947
1731409968004596500,0.174596435546875,7.978867053985596,5.418546676635742,0.06699903309345245
1731409968014401800,0.18440185546875,7.75124979019165,5.3347978591918945,0.02632104977965355
1731409968024206600,0.19420654296875,7.801798343658447,5.509474277496338,0.08135596662759781
1731409968034012200,0.20401220703125,7.772785186767578,5.43290376663208,0.07417750358581543
1731409968043818500,0.213818603515625,7.916653633117676,5.437689304351807,-0.01196411345154047
1731409968053623800,0.223623779296875,7.988438606262207,5.554937839508057,0.016749758273363113
1731409968063428600,0.2334287109375,7.732107162475586,5.511867046356201,0.04546362906694412
1731409968073234200,0.243234130859375,7.430611610412598,5.523830890655518,0.08614161610603333
1731409968083040500,0.25304052734375,7.3660054206848145,5.684150218963623,0.11964113265275955
1731409968092846000,0.26284619140625,7.468896865844727,5.715256690979004,0.059820566326379776
1731409968102650600,0.272650634765625,7.418647289276123,5.650650501251221,0.02632104977965355
1731409968112456200,0.282456298828125,7.504789352416992,5.686542987823486,0.062213387340307236
1731409968122262500,0.292262451171875,7.7201433181762695,5.7511491775512695,0.0933200865983963
1731409968132068000,0.302068115234375,7.8113694190979,5.736792087554932,0.10767702013254166
1731409968141872600,0.31187255859375,7.9142608642578125,5.859125137329102,0.17706887423992157
1731409968151678200,0.32167822265625,7.722536087036133,5.938088417053223,0.07896314561367035
1731409968161484500,0.331484619140625,7.363612651824951,6.040979862213135,0.014356935396790504
1731409968171290000,0.3412900390625,7.2559356689453125,6.122335910797119,0.02871387079358101
1731409968181094700,0.3510947265625,7.334898948669434,6.131906986236572,0.14117653667926788
1731409968190900200,0.360900146484375,7.612466335296631,6.045765399932861,0.24885354936122894
1731409968200706600,0.37070654296875,7.875975608825684,6.000301837921143,0.2946162819862366
1731409968210512100,0.38051220703125,7.954938888549805,5.923731327056885,0.37597227096557617
1731409968220316700,0.390316650390625,7.797012805938721,5.935695648193359,0.4453641176223755
1731409968230122200,0.400122314453125,7.521538734436035,6.012266159057617,0.4262215197086334
1731409968239928600,0.409928466796875,7.318149089813232,6.112764358520508,0.40707895159721375
1731409968249734100,0.419734130859375,7.380362510681152,6.096014976501465,0.38793638348579407
1731409968259539000,0.4295390625,7.404290676116943,6.031408786773682,0.34247273206710815
1731409968269344300,0.43934423828125,7.370790958404541,6.052944183349609,0.38793638348579407
1731409968279150600,0.449150634765625,7.511967658996582,6.019444465637207,0.4453641176223755
1731409968288956200,0.4589560546875,7.610073089599609,5.909374713897705,0.45972105860710144
1731409968298761000,0.468760986328125,7.940581798553467,5.883053779602051,0.4286143481731415
1731409968308566500,0.47856640625,8.203792572021484,5.787041664123535,0.3496512174606323
1731409968318372900,0.488372802734375,8.210970878601074,5.755934715270996,0.41904306411743164
1731409968328178200,0.49817822265625,8.050651550292969,5.763113498687744,0.4860421121120453
1731409968337983000,0.50798291015625,7.9621171951293945,5.746363639831543,0.4740779995918274
1731409968347788500,0.51778857421875,7.995616912841797,5.746363639831543,0.47647079825401306
1731409968357595000,0.527594970703125,8.26839828491211,5.581258773803711,0.4094717800617218
1731409968367400200,0.537400146484375,8.594121932983398,5.2746782302856445,0.12681959569454193
1731409968377205000,0.547205078125,8.103293418884277,5.456831932067871,-0.04546362906694412
1731409968387010600,0.557010498046875,8.464909553527832,5.68893575668335,0.7085745930671692
1731409968396817000,0.56681689453125,8.64197826385498,5.938088417053223,1.134796142578125
1731409968406622200,0.576622314453125,8.546265602111816,6.124728679656982,1.316650629043579
1731409968416427000,0.586427001953125,8.567800521850586,6.218048572540283,1.5155540704727173
1731409968426232600,0.596232666015625,8.661120414733887,6.297011852264404,1.5897315740585327
1731409968436039000,0.606038818359375,8.725727081298828,6.404688835144043,1.5514464378356934
1731409968445844200,0.61584423828125,8.567800521850586,6.404688835144043,1.4724832773208618
1731409968455649000,0.62564892578125,8.026723861694336,6.380760669708252,1.2113664150238037
1731409968465454600,0.63545458984375,7.574181079864502,6.426523208618164,0.8811569213867188
1731409968475261000,0.645260986328125,7.480860710144043,6.527021884918213,0.6678966283798218
1731409968485066500,0.65506640625,7.586144924163818,6.598806858062744,0.5338985323905945
1731409968494871000,0.66487109375,7.8903326988220215,6.529414653778076,0.4334000051021576
1731409968504676600,0.674676513671875,8.330612182617188,6.342475414276123,0.34247273206710815
1731409968514483000,0.68448291015625,8.43140983581543,6.20847749710083,0.05503492057323456
1731409968524288500,0.69428857421875,8.64915657043457,6.141478538513184,-0.37118661403656006
1731409968534093000,0.704093017578125,9.185447692871094,6.34008264541626,-0.6846463680267334
1731409968543898600,0.713898681640625,9.618847846984863,6.605985164642334,-0.8955138921737671
1731409968553705000,0.723705078125,10.303494453430176,6.850052833557129,-1.043868899345398
1731409968563510500,0.733510498046875,10.94267749786377,7.16859769821167,-0.8282157182693481
1731409968573315000,0.743315185546875,11.047961235046387,7.422236919403076,-0.7133602499961853
1731409968583120600,0.75312060546875,11.435897827148438,7.446165084838867,-0.6583253145217896
1731409968592927000,0.762927001953125,11.732906341552734,7.16859769821167,-0.3927220106124878
1731409968602732500,0.772732666015625,12.058330535888672,6.6969122886657715,0.06699903309345245
1731409968612537000,0.782537109375,12.484552383422852,6.163013935089111,0.39032918214797974
1731409968622342700,0.7923427734375,12.597014427185059,6.148656845092773,0.5458626747131348
1731409968632149000,0.80214892578125,12.197113990783691,6.184549331665039,0.8018946647644043
1731409968641954600,0.81195458984375,11.732906341552734,5.834897994995117,1.1204391717910767
1731409968651759400,0.82175927734375,11.507681846618652,5.243571758270264,1.5514464378356934
1731409968661564700,0.831564697265625,11.447861671447754,4.716851711273193,2.204986095428467
1731409968671371000,0.84137109375,11.450254440307617,4.307679176330566,2.95902419090271
1731409968681176600,0.851176513671875,11.107781410217285,4.511068820953369,3.945465326309204
1731409968690981400,0.8609814453125,10.133604049682617,5.109573841094971,4.931906700134277
1731409968700786700,0.87078662109375,8.491230010986328,5.571687698364258,5.609374523162842
1731409968710593300,0.88059326171875,7.061817646026611,5.511867046356201,5.695516109466553
1731409968720398600,0.890398681640625,6.106483459472656,5.190929412841797,5.396413326263428
1731409968730203400,0.900203369140625,5.053342342376709,4.9277191162109375,5.022833824157715
1731409968740009000,0.910009033203125,3.7531423568725586,4.829613208770752,4.845765113830566
1731409968749815300,0.919815185546875,2.410170555114746,5.107180595397949,4.661218643188477
1731409968759620600,0.92962060546875,0.8850452899932861,5.624329566955566,4.682754039764404
1731409968769425400,0.93942529296875,-0.14685949683189392,5.588437080383301,4.994120121002197
1731409968779231000,0.94923095703125,-0.2186441719532013,5.210072040557861,4.9725847244262695
1731409968789037300,0.959037353515625,-0.36221352219581604,4.671388149261475,4.682754039764404
1731409968798842600,0.968842529296875,-0.3885345757007599,4.051347732543945,4.201497554779053
1731409968808647400,0.9786474609375,-0.08225327730178833,3.766602039337158,3.5814573764801025
1731409968818453000,0.988452880859375,0.08793623000383377,3.632603883743286,3.315854072570801
1731409968828259300,0.99825927734375,0.35832518339157104,3.4002010822296143,3.5336008071899414
1731409968838064600,1.008064697265625,1.2346965074539185,3.376272678375244,3.890430450439453
1731409968847869400,1.017869384765625,2.182553291320801,3.2542388439178467,4.3788652420043945
1731409968857675000,1.027675048828125,2.9823544025421143,2.904587507247925,4.632504463195801
1731409968867481300,1.0374814453125,4.145864486694336,2.2845473289489746,5.027619361877441
1731409968877287000,1.047286865234375,5.505585670471191,1.6381862163543701,5.90877628326416
1731409968887091500,1.057091552734375,6.0610198974609375,1.4395818710327148,7.524529933929443
1731409968896897000,1.06689697265625,5.711667537689209,1.5065809488296509,9.478269577026367
1731409968906703400,1.076703369140625,4.909473896026611,1.657328724861145,11.149356842041016
1731409968916509000,1.086509033203125,3.7196428775787354,2.215155601501465,12.485150337219238
1731409968926313500,1.0963134765625,2.02701997756958,3.06999135017395,13.23709487915039
1731409968936119000,1.106119140625,0.48514479398727417,2.9237301349639893,13.37587833404541
1731409968945925400,1.11592529296875,-17.47777557373047,2.303689956665039,12.566506385803223
1731409968955731000,1.12573095703125,-38.040496826171875,15.023635864257812,3.208176851272583
1731409968965535700,1.13553564453125,-1.810768485069275,0.0771685317158699,3.1268210411071777
1731409968975341000,1.145341064453125,-15.150455474853516,0.7809575200080872,3.492922782897949
1731409968985147600,1.155147705078125,-6.117550373077393,4.1760735511779785,4.261617183685303
1731409968994953000,1.164952880859375,-8.186145782470703,5.923731327056885,6.519245147705078
1731409969004757800,1.1747578125,-8.574081420898438,6.481558322906494,6.74656343460083
1731409969014563300,1.184563232421875,-7.23798942565918,6.809374809265137,6.5527448654174805
1731409969024369700,1.19436962890625,-7.127919673919678,7.163811683654785,6.55992317199707
1731409969034175000,1.204175048828125,-7.618747234344482,7.8388872146606445,6.418447494506836
1731409969043979800,1.213979736328125,-8.619544982910156,8.111968040466309,6.3825554847717285
1731409969053785300,1.223785400390625,-9.81655502319336,7.865208148956299,6.571887493133545
1731409969063591700,1.233591796875,-10.355238914489746,7.934599876403809,6.305984973907471
1731409969073397000,1.24339697265625,-10.817353248596191,7.515556812286377,5.954239845275879
1731409969083201800,1.253201904296875,-11.21934700012207,7.170990467071533,5.578267574310303
1731409969093007400,1.26300732421875,-11.442178726196289,6.97477912902832,5.2477593421936035
1731409969102813700,1.272813720703125,-11.066206932067871,6.780661106109619,4.9414777755737305
1731409969112619300,1.282619384765625,-10.115657806396484,6.608377933502197,4.701896667480469
1731409969122423800,1.292423828125,-8.875576972961426,6.558128833770752,4.709074974060059
1731409969132229400,1.3022294921875,-7.17577600479126,6.399903297424316,4.946263313293457
1731409969142035700,1.31203564453125,-4.989932537078857,6.460022926330566,5.276473045349121
1731409969151841300,1.32184130859375,-2.981456995010376,6.718447685241699,5.530411243438721
1731409969161645800,1.331645751953125,-1.394118309020996,7.070491790771484,5.657230854034424
1731409969171451400,1.341451416015625,-0.06550352275371552,7.374380111694336,5.767300605773926
1731409969181257700,1.3512578125,1.332802176475525,7.6498541831970215,5.937490463256836
1731409969191063300,1.361063232421875,2.627917528152466,7.872386455535889,6.112166404724121
1731409969200868000,1.3708681640625,3.7746777534484863,7.963313579559326,6.363412857055664
1731409969210673400,1.38067333984375,4.9262237548828125,7.910671710968018,6.471388816833496
1731409969220479700,1.390479736328125,5.912664890289307,7.688138961791992,6.236593246459961
1731409969230285300,1.400285400390625,6.616453647613525,7.391129970550537,5.817550182342529
1731409969240090000,1.410090087890625,7.16231632232666,7.127919673919678,5.413163185119629
1731409969249895400,1.4198955078125,7.650751113891602,6.842874526977539,4.998905658721924
1731409969259702000,1.429701904296875,7.825726509094238,6.594020843505859,4.522434711456299
1731409969269507300,1.43950732421875,7.753642559051514,6.474380016326904,4.110570430755615
1731409969279312100,1.44931201171875,7.492825031280518,6.493522644042969,3.8162529468536377
1731409969289117700,1.45911767578125,6.9445695877075195,6.5868425369262695,3.5958142280578613
1731409969298924000,1.468924072265625,6.269494533538818,6.534200668334961,3.5192439556121826
1731409969308729300,1.478729248046875,5.565705299377441,6.39511775970459,3.4642090797424316
1731409969318534100,1.4885341796875,4.749154567718506,6.241976737976074,3.5407793521881104
1731409969328339700,1.498339599609375,3.8922250270843506,6.09122896194458,3.859323740005493
1731409969338146000,1.50814599609375,3.2599217891693115,5.969195365905762,4.390829563140869
1731409969347951600,1.51795166015625,2.86989164352417,5.942873954772949,5.13529634475708
1731409969357756200,1.527756103515625,2.5609183311462402,6.206084728240967,6.069095611572266
1731409969367561700,1.537561767578125,2.3431715965270996,6.5318074226379395,6.854240417480469
1731409969377368000,1.5473681640625,2.237887382507324,6.582056999206543,7.254140853881836
1731409969387173600,1.557173583984375,1.672882080078125,6.397510528564453,7.33549690246582
1731409969396978400,1.566978515625,0.6840481758117676,6.050550937652588,7.371389389038086
1731409969406784000,1.576783935546875,-0.47706902027130127,5.5142598152160645,7.2349982261657715
1731409969416590300,1.58659033203125,-1.7700905799865723,4.78893518447876,7.045965194702148
1731409969426395600,1.596395751953125,-3.3475589752197266,4.477569580078125,7.383353233337402
1731409969436200400,1.606200439453125,-61.16263961791992,7.81974458694458,7.569993495941162
1731409969446006000,1.616006103515625,-14.87528133392334,10.616056442260742,2.8896324634552
1731409969455812400,1.625812255859375,-9.196515083312988,4.099204063415527,7.709076404571533
1731409969465617700,1.63561767578125,-6.965207576751709,6.9891357421875,7.189534664154053
1731409969475422500,1.64542236328125,-8.997611045837402,9.411869049072266,6.825526714324951
1731409969485228000,1.65522802734375,-11.082956314086914,8.262715339660645,6.468996047973633
1731409969495034400,1.665034423828125,-10.455738067626953,7.936992645263672,5.752943992614746
1731409969504840000,1.67483984375,-9.35204792022705,7.429415225982666,5.377270698547363
1731409969514644500,1.68464453125,-8.353643417358398,7.05134916305542,5.776872158050537
1731409969524450000,1.694449951171875,-7.910671710968018,7.16859769821167,6.457031726837158
1731409969534256400,1.70425634765625,-8.138288497924805,7.613961696624756,6.818347930908203
1731409969544062000,1.71406201171875,-8.676973342895508,7.731209754943848,6.751348972320557
1731409969553866800,1.72386669921875,-8.609973907470703,7.52512788772583,6.291627883911133
1731409969563672000,1.733672119140625,-7.913064479827881,7.077670097351074,5.712265968322754
1731409969573478700,1.743478759765625,-6.936493873596191,6.603592395782471,5.118546962738037
1731409969583284000,1.753283935546875,-5.480760097503662,6.268298149108887,4.67078971862793
1731409969593088800,1.7630888671875,-3.733102321624756,6.165406703948975,4.445864677429199
1731409969602894300,1.772894287109375,-2.0380866527557373,6.364010810852051,4.374079704284668
1731409969612700700,1.78270068359375,-0.6110670566558838,6.665805816650391,4.3310089111328125
1731409969622506200,1.79250634765625,0.7414759397506714,6.969694137573242,4.323830604553223
1731409969632310800,1.802310791015625,2.0318055152893066,7.202096939086914,4.189533233642578
1731409969642116400,1.812116455078125,3.0780673027038574,7.240382194519043,3.9000017642974854
1731409969651922700,1.821922607421875,4.035794258117676,7.23798942565918,3.6269209384918213
1731409969661728300,1.831728271484375,4.758726119995117,7.3313093185424805,3.6053855419158936
1731409969671533000,1.841532958984375,5.156233787536621,7.539783954620361,3.7133617401123047
1731409969681338400,1.85133837890625,5.735595703125,7.558926582336426,3.9478583335876465
1731409969691144700,1.861144775390625,6.714858531951904,7.438986301422119,4.211368083953857
1731409969700950300,1.8709501953125,7.468896865844727,7.343273639678955,4.4721856117248535
1731409969710755000,1.880755126953125,7.976474285125732,7.18295431137085,4.721039295196533
1731409969720560600,1.890560546875,8.349754333496094,6.926623344421387,4.951049327850342
1731409969730367000,1.900366943359375,8.40030288696289,6.828517436981201,5.1209397315979
1731409969740172500,1.910172607421875,8.515158653259277,6.620342254638672,5.204688549041748
1731409969749977000,1.91997705078125,8.854939460754395,6.20847749710083,5.319543838500977
1731409969759782700,1.92978271484375,9.240483283996582,5.746363639831543,5.4658050537109375
1731409969769589000,1.939589111328125,9.606884002685547,5.140680313110352,5.831906795501709
1731409969779394600,1.94939453125,9.88684368133545,4.7386860847473145,6.49770975112915
1731409969789199400,1.959199462890625,9.73370361328125,4.417748928070068,7.1871418952941895
1731409969799004700,1.969004638671875,9.611669540405273,3.6924245357513428,7.654041290283203
1731409969808811000,1.97881103515625,9.374481201171875,2.7059834003448486,7.8454670906066895
1731409969818616600,1.988616455078125,8.57019329071045,1.755434513092041,8.127820014953613
1731409969828421400,1.99842138671875,7.358827114105225,0.98703932762146,8.649754524230957
1731409969838227000,2.00822705078125,5.900700569152832,0.22073788940906525,9.193224906921387
1731409969848033300,2.018033203125,-17.733806610107422,0.3287140130996704,10.71117115020752
1731409969857838800,2.0278388671875,-9.850054740905762,20.388643264770508,6.250949859619141
1731409969867643400,2.037643310546875,-3.022135019302368,-4.397409915924072,8.582756042480469
1731409969877449000,2.047448974609375,-9.189335823059082,3.764209032058716,12.576077461242676
1731409969887255300,2.05725537109375,-9.253942489624023,7.216454029083252,9.703194618225098
1731409969897060900,2.067060791015625,-6.589235305786133,7.1973114013671875,8.262117385864258
1731409969906865700,2.07686572265625,-4.3172502517700195,6.000301837921143,5.884549140930176
1731409969916671200,2.086671142578125,-2.490629196166992,6.498308181762695,4.764110088348389
1731409969926477600,2.0964775390625,-2.4762723445892334,7.812565803527832,5.56869649887085
1731409969936283000,2.106282958984375,-2.3590240478515625,8.834898948669434,7.1871418952941895
1731409969946087700,2.116087646484375,-2.7035903930664062,9.1052885055542,7.795217990875244
1731409969955893200,2.125893310546875,-3.5273196697235107,8.286643981933594,7.146463871002197
1731409969965699600,2.135699462890625,-4.034897327423096,7.001100063323975,5.961418628692627
1731409969975505200,2.145505126953125,-4.11625337600708,6.124728679656982,5.168796062469482
1731409969985309700,2.155309814453125,-3.9436707496643066,6.117550373077393,5.429912567138672
1731409969995115300,2.165115234375,-3.6182470321655273,6.479165554046631,6.033203125
1731409970004921900,2.174921875,-3.28773832321167,6.7447686195373535,6.272485256195068
1731409970014727200,2.18472705078125,-3.091526746749878,6.787839412689209,6.174379825592041
1731409970024532000,2.194531982421875,-2.8809585571289062,6.708876609802246,6.023632049560547
1731409970034337500,2.204337646484375,-2.8375885486602783,6.5868425369262695,5.923133373260498
1731409970044143900,2.214143798828125,-2.8615167140960693,6.629913330078125,5.855835437774658
1731409970053949400,2.223949462890625,-2.940778970718384,6.914659023284912,5.939883232116699
1731409970063754000,2.23375390625,-3.1274192333221436,7.166204929351807,6.181558132171631
1731409970073559600,2.2435595703125,-3.249453067779541,7.2690958976745605,6.365805625915527
1731409970083366000,2.253365966796875,-3.31884503364563,7.240382194519043,6.4304118156433105
1731409970093171500,2.26317138671875,-3.3236305713653564,7.16859769821167,6.447161674499512
1731409970102976300,2.272976318359375,-3.294916868209839,7.252346515655518,6.387341022491455
1731409970112781800,2.28278173828125,-3.2829527854919434,7.350451946258545,6.28205680847168
1731409970122588200,2.292588134765625,-3.342773199081421,7.371987342834473,6.138487339019775
1731409970132393700,2.302393798828125,-3.496212959289551,7.467700481414795,6.04038143157959
1731409970142198300,2.3121982421875,-3.6900315284729004,7.57806921005249,5.992525100708008
1731409970152004000,2.322004150390625,-3.835993766784668,7.606783390045166,5.947061538696289
1731409970161810200,2.33181005859375,-3.8790645599365234,7.599604606628418,5.781657695770264
1731409970171615700,2.34161572265625,-3.7713875770568848,7.594819068908691,5.539982795715332
1731409970181420500,2.351420654296875,-3.6182470321655273,7.671389579772949,5.384449005126953
1731409970191226000,2.36122607421875,-3.544069528579712,7.719245910644531,5.3748779296875
1731409970201032400,2.371032470703125,-3.4316067695617676,7.7216386795043945,5.504090309143066
1731409970210838000,2.380838134765625,-3.373879909515381,7.719245910644531,5.669195175170898
1731409970220642600,2.390642578125,-3.4002010822296143,7.652246952056885,5.748157978057861
1731409970230448000,2.4004482421875,-3.4097721576690674,7.621140003204346,5.714658737182617
1731409970240254700,2.410254638671875,-3.433999538421631,7.6498541831970215,5.628517150878906
1731409970250060000,2.42006005859375,-3.34995174407959,7.566105365753174,5.511268615722656
1731409970259864800,2.42986474609375,-3.1680972576141357,7.489235877990723,5.3748779296875
1731409970269670400,2.43967041015625,-2.9766714572906494,7.467700481414795,5.358128070831299
1731409970279476700,2.449476806640625,-2.828017234802246,7.407879829406738,5.391627788543701
1731409970289282300,2.4592822265625,-2.859123945236206,7.367201805114746,5.31475830078125
1731409970299086800,2.4690869140625,-2.8615167140960693,7.328916549682617,5.305186748504639
1731409970308892700,2.478892578125,-2.851945400238037,7.283452987670898,5.293222904205322
1731409970318699000,2.488698974609375,-2.9383862018585205,7.295417308807373,5.302793979644775
1731409970328504300,2.49850439453125,-3.0101709365844727,7.3552374839782715,5.38205623626709
1731409970338309000,2.50830908203125,-3.022135019302368,7.460521697998047,5.446662425994873
1731409970348114700,2.51811474609375,-2.9838497638702393,7.587640762329102,5.528018474578857
1731409970357921000,2.527921142578125,-2.9383862018585205,7.752745151519775,5.650052547454834
1731409970367726600,2.5377265625,-2.991028308868408,8.023134231567383,5.714658737182617
1731409970377531400,2.547531494140625,-3.1992039680480957,8.178966522216797,5.736194133758545
1731409970387337000,2.5573369140625,-3.414557933807373,8.267500877380371,5.743372440338135
1731409970397143300,2.567143310546875,-3.5823545455932617,8.351249694824219,5.748157978057861
1731409970406948600,2.576948486328125,-3.654139280319214,8.396714210510254,5.7720866203308105
1731409970416753400,2.58675341796875,-3.7043886184692383,8.458927154541016,5.750551223754883
1731409970426559000,2.59655908203125,-3.6828532218933105,8.454141616821289,5.664409637451172
1731409970436365300,2.606365234375,-3.520141124725342,8.31535816192627,5.592624664306641
1731409970446171000,2.6161708984375,-3.335594654083252,8.090133666992188,5.494519233703613
1731409970455975700,2.6259755859375,-3.218346357345581,7.939385414123535,5.2956156730651855
1731409970465781200,2.63578125,-3.1417760848999023,7.755138397216797,5.1209397315979
1731409970475587600,2.645587646484375,-3.1130621433258057,7.551748275756836,5.068297386169434
1731409970485393200,2.65539306640625,-3.0939197540283203,7.467700481414795,5.075475692749023
1731409970495198000,2.665197998046875,-3.077169895172119,7.3863444328308105,5.092225551605225
1731409970505003300,2.675003173828125,-3.0556344985961914,7.302595615386963,5.049154758453369
1731409970514809900,2.684809814453125,-3.108276605606079,7.2451677322387695,4.931906700134277
1731409970524615200,2.694615234375,-3.2063822746276855,7.254739284515381,4.711467742919922
1731409970534420000,2.704419921875,-3.314059257507324,7.316952705383301,4.548755645751953
1731409970544225500,2.7142255859375,-3.390629768371582,7.374380111694336,4.53200626373291
1731409970554031900,2.724031982421875,-3.567997694015503,7.474878787994385,4.615755081176758
1731409970563837400,2.73383740234375,-3.654139280319214,7.611568927764893,4.7401814460754395
1731409970573642200,2.743642333984375,-3.6445679664611816,7.606783390045166,4.8792643547058105
1731409970583447600,2.753447509765625,-3.546462297439575,7.5565338134765625,5.018048286437988
1731409970593254100,2.763254150390625,-3.3690943717956543,7.587640762329102,5.159224510192871
1731409970603059700,2.773059814453125,-3.273381471633911,7.676175117492676,5.238187789916992
1731409970612864300,2.7828642578125,-3.311666488647461,7.704888820648193,5.214259624481201
1731409970622669800,2.792669921875,-3.326023578643799,7.678567886352539,5.111368179321289
1731409970632476200,2.80247607421875,-3.3858439922332764,7.733603000640869,5.061119079589844
1731409970642281700,2.81228173828125,-3.489034414291382,7.731209754943848,5.092225551605225
1731409970652086500,2.82208642578125,-3.5512478351593018,7.64028263092041,5.164010524749756
1731409970661892000,2.83189208984375,-3.4265220165252686,7.546962738037109,5.281258583068848
1731409970671698400,2.841698486328125,-3.249453067779541,7.441379547119141,5.159224510192871
1731409970681504000,2.85150390625,-3.1920254230499268,7.3935227394104,5.00369119644165
1731409970691308800,2.861308837890625,-3.2303106784820557,7.51077127456665,4.888835906982422
1731409970701114400,2.8711142578125,-3.4121651649475098,7.671389579772949,4.812265396118164
1731409970710920700,2.880920654296875,-3.6972100734710693,7.802994728088379,4.857728958129883
1731409970720726300,2.890726318359375,-3.819244146347046,7.980063438415527,5.00369119644165
1731409970730530800,2.90053076171875,-3.6732819080352783,8.128717422485352,5.1305108070373535
1731409970740336400,2.91033642578125,-3.2374889850616455,8.162217140197754,5.101797103881836
1731409970750142700,2.920142822265625,-2.926422119140625,7.975277900695801,4.936692237854004
1731409970759948300,2.9299482421875,-2.998206853866577,7.776673793792725,4.685146808624268
1731409970769753000,2.939753173828125,-2.059622049331665,7.81974458694458,4.646861553192139
1731409970779558700,2.94955859375,-0.8697910308837891,8.116753578186035,4.872086048126221
1731409970789365000,2.959364990234375,-0.8626125454902649,8.657830238342285,5.207081317901611
1731409970799170600,2.969170654296875,-1.8586249351501465,9.17467975616455,5.362913608551025
1731409970808975400,2.978975341796875,-3.2207393646240234,9.395118713378906,5.2645087242126465
1731409970818781000,2.988781005859375,-3.874279022216797,9.218050003051758,4.934299468994141
1731409970828587300,2.998587158203125,-4.106681823730469,8.923434257507324,4.706682205200195
1731409970838392800,3.008392822265625,-4.513461589813232,8.389534950256348,4.6372904777526855
1731409970848197400,3.018197265625,-4.901398181915283,7.81974458694458,4.711467742919922
1731409970858003200,3.028003173828125,-4.695615291595459,7.515556812286377,4.833800792694092
1731409970867809500,3.0378095703125,-4.322035789489746,7.400701522827148,4.9175496101379395
1731409970877614800,3.04761474609375,-4.063611030578613,7.321738243103027,4.998905658721924
1731409970887419600,3.057419677734375,-4.0420756340026855,7.017849922180176,5.097011566162109
1731409970897225200,3.06722509765625,-4.71954345703125,7.427022457122803,5.161617755889893
1731409970907031600,3.077031494140625,-5.155336380004883,7.700103282928467,5.508875846862793
1731409970916837000,3.086837158203125,-5.823233127593994,8.123931884765625,5.7409796714782715
1731409970926642000,3.096641845703125,-5.696413516998291,8.303393363952637,5.752943992614746
1731409970936447500,3.106447509765625,-5.2390851974487305,8.119146347045898,5.401198863983154
1731409970946253800,3.11625390625,-5.112265586853027,7.6737823486328125,4.817050933837891
1731409970956059400,3.126059326171875,-5.430510997772217,7.10638427734375,4.244867324829102
1731409970965864200,3.1358642578125,-5.631507873535156,6.574878215789795,3.7971103191375732
1731409970975669500,3.14566943359375,-5.30129861831665,6.191727638244629,3.366103172302246
1731409970985476000,3.15547607421875,-4.64297342300415,6.0146589279174805,3.030808925628662
1731409970995281400,3.165281494140625,-4.027718544006348,5.962016582489014,2.755634307861328
1731409971005086200,3.175086181640625,-3.931706666946411,6.392724990844727,2.5378875732421875
1731409971014891800,3.184891845703125,-4.736293315887451,5.978766441345215,2.4299113750457764
1731409971024698000,3.194697998046875,-5.140979290008545,6.081657886505127,2.4323041439056396
1731409971034503700,3.204503662109375,-5.078466892242432,6.151049613952637,2.5546371936798096
1731409971044308500,3.21430859375,-4.619044780731201,6.2898335456848145,2.705385208129883
1731409971054114000,3.224114013671875,-4.345963954925537,6.40229606628418,2.597707986831665
1731409971063920400,3.23392041015625,-5.14576530456543,6.977171897888184,1.8481563329696655
1731409971073726000,3.243725830078125,-6.26859712600708,7.340880870819092,0.9888339638710022
1731409971083530800,3.25353076171875,-5.885446548461914,6.608377933502197,1.7237296104431152
1731409971093336300,3.26333642578125,-4.37228536605835,6.1725850105285645,3.4713873863220215
1731409971103142700,3.273142578125,-3.397808074951172,6.51745080947876,4.4721856117248535
1731409971112948200,3.2829482421875,-3.5656049251556396,6.8620171546936035,4.575077056884766
1731409971122752800,3.292752685546875,-3.757030725479126,6.495915412902832,4.60139799118042
1731409971132558600,3.30255859375,-4.111467361450195,6.653841495513916,4.417150497436523
1731409971142365000,3.312364990234375,-5.571687698364258,7.1733832359313965,4.065106391906738
1731409971152170200,3.322170166015625,-6.634698867797852,7.6977105140686035,4.249652862548828
1731409971161975000,3.33197509765625,-6.529414653778076,8.336893081665039,4.84815788269043
1731409971171780600,3.341780517578125,-5.828018665313721,8.42303466796875,5.810371398925781
1731409971181587000,3.3515869140625,-4.977968215942383,8.135895729064941,6.4666032791137695
1731409971191392500,3.361392578125,-4.678865432739258,8.080561637878418,6.5288166999816895
1731409971201197300,3.371197265625,-4.944468975067139,8.188538551330566,6.057131290435791
1731409971211003000,3.3810029296875,-5.540580749511719,7.968099594116211,5.480162143707275
1731409971220809200,3.390809326171875,-5.830411434173584,7.285845756530762,4.888835906982422
1731409971230614800,3.40061474609375,-5.607579708099365,6.534200668334961,4.398007869720459
1731409971240419600,3.410419677734375,-5.61236572265625,6.036194324493408,4.314259052276611
1731409971250225200,3.42022509765625,-6.000301837921143,6.069693565368652,4.431507587432861
1731409971260031500,3.430031494140625,-5.916553020477295,6.258726596832275,4.615755081176758
1731409971269837000,3.439837158203125,-5.895017623901367,6.399903297424316,4.692325115203857
1731409971279641900,3.449641845703125,-6.1797637939453125,6.3855462074279785,4.646861553192139
1731409971289447200,3.459447265625,-6.855137825012207,6.39511775970459,4.3070807456970215
1731409971299253800,3.469253662109375,-7.487142086029053,6.371189594268799,3.897608995437622
1731409971309059000,3.47905908203125,-7.187740325927734,6.1965131759643555,3.5503506660461426
1731409971318864000,3.48886376953125,-6.424130439758301,5.878267765045166,3.7301113605499268
1731409971328669400,3.49866943359375,-6.527021884918213,6.074479579925537,4.148855209350586
1731409971338476000,3.50847607421875,-6.716054916381836,6.356832504272461,4.374079704284668
1731409971348281300,3.51828125,-6.9699931144714355,6.253941059112549,4.402793884277344
1731409971358086100,3.528086181640625,-6.754340171813965,6.682555675506592,4.462614059448242
1731409971367891700,3.5378916015625,-6.761518478393555,6.926623344421387,4.644468784332275
1731409971377698000,3.547697998046875,-6.5150580406188965,6.826124668121338,4.153641223907471
1731409971387503600,3.557503662109375,-5.545366287231445,6.318547248840332,3.524029493331909
1731409971397308400,3.567308349609375,-3.0317063331604004,4.7937211990356445,3.0020952224731445
1731409971407114000,3.577114013671875,-9.749555587768555,7.017849922180176,4.460221290588379
1731409971416920300,3.58692041015625,-8.784649848937988,5.02343225479126,4.503292083740234
1731409971426726000,3.596725830078125,-4.678865432739258,4.745864391326904,4.170390605926514
1731409971436530400,3.606530517578125,-3.373879909515381,8.688937187194824,6.370591163635254
1731409971446336300,3.616336181640625,-7.154240608215332,7.371987342834473,6.162415504455566
1731409971456142600,3.626142578125,-7.867600917816162,5.933302879333496,4.264009952545166
1731409971465948200,3.6359482421875,-6.591628074645996,6.955337047576904,4.3310089111328125
1731409971475752700,3.645752685546875,-6.4456658363342285,7.211668491363525,4.383651256561279
1731409971485558300,3.655558349609375,-6.620342254638672,6.51745080947876,4.194318771362305
1731409971495364600,3.665364501953125,-6.124728679656982,6.4456658363342285,4.242474555969238
1731409971505170200,3.675170166015625,-6.098407745361328,6.52462911605835,4.2831525802612305
1731409971514975000,3.68497509765625,-6.402595043182373,6.479165554046631,4.223331928253174
1731409971524780500,3.694780517578125,-6.292525291442871,6.503093719482422,4.252045631408691
1731409971534587000,3.7045869140625,-5.859125137329102,6.488736629486084,4.319045066833496
1731409971544392400,3.714392333984375,-5.761019706726074,6.505486488342285,4.151247978210449
1731409971554197200,3.724197265625,-6.112764358520508,6.151049613952637,3.911965847015381
1731409971564002800,3.7340029296875,-6.278168201446533,6.328118801116943,4.187140464782715
1731409971573809200,3.74380908203125,-5.880660533905029,6.450451850891113,4.402793884277344
1731409971583614700,3.75361474609375,-5.978766441345215,6.4456658363342285,4.395615100860596
1731409971593419500,3.76341943359375,-6.131906986236572,6.297011852264404,4.163212299346924
1731409971603225000,3.77322509765625,-6.2204413414001465,6.1534423828125,3.9143588542938232
1731409971613031400,3.783031494140625,-6.266204357147217,6.081657886505127,3.8856449127197266
1731409971622837000,3.7928369140625,-6.251847267150879,6.079265117645264,4.026821613311768
1731409971632641500,3.8026416015625,-6.278168201446533,6.167799472808838,4.103391647338867
1731409971642447000,3.812447021484375,-6.297310829162598,6.253941059112549,4.139284133911133
1731409971652253400,3.82225341796875,-6.306882381439209,6.366403579711914,4.1368913650512695
1731409971662059000,3.83205908203125,-6.309275150299072,6.443273067474365,4.122534275054932
1731409971671863800,3.84186376953125,-6.20847749710083,6.52462911605835,4.132105827331543
1731409971681669400,3.85166943359375,-6.235097408294678,6.553342819213867,4.223331928253174
1731409971691475700,3.861475830078125,-6.364310264587402,6.546164512634277,4.264009952545166
1731409971701281300,3.87128125,-6.278168201446533,6.493522644042969,4.182354927062988
1731409971711086000,3.881086181640625,-6.158228397369385,6.486343860626221,4.127319812774658
1731409971720891600,3.8908916015625,-6.069693565368652,6.577271461486816,4.067499160766602
1731409971730698000,3.900697998046875,-6.148656845092773,6.627520561218262,4.029214382171631
1731409971740503600,3.910503662109375,-6.247061729431152,6.613163471221924,4.062713623046875
1731409971750308400,3.920308349609375,-6.232405662536621,6.668198585510254,4.203890323638916
1731409971760114000,3.930114013671875,-6.266204357147217,6.663413047790527,4.340580463409424
1731409971769920300,3.939920166015625,-6.2566328048706055,6.603592395782471,4.347758769989014
1731409971779725800,3.949725830078125,-6.244668960571289,6.574878215789795,4.261617183685303
1731409971789530400,3.9595302734375,-6.230012893676758,6.565307140350342,4.153641223907471
1731409971799336000,3.9693359375,-6.1725850105285645,6.5318074226379395,4.084249019622803
1731409971809142500,3.979142578125,-6.0768723487854,6.522236347198486,4.038785457611084
1731409971818947800,3.98894775390625,-6.060122489929199,6.565307140350342,4.038785457611084
1731409971828752600,3.998752685546875,-6.072086334228516,6.584449768066406,4.045963764190674
1731409971838558200,4.00855810546875,-6.100800514221191,6.553342819213867,3.976572036743164
1731409971848364500,4.018364501953125,-6.1103715896606445,6.498308181762695,3.9478583335876465
1731409971858170000,4.028170166015625,-6.072086334228516,6.481558322906494,3.959822416305542
1731409971867975000,4.037974853515625,-6.0625152587890625,6.498308181762695,4.002892971038818
1731409971877780500,4.047780517578125,-6.074479579925537,6.505486488342285,4.000500202178955
1731409971887586800,4.0575869140625,-6.141478538513184,6.51745080947876,3.9789650440216064
1731409971897392400,4.067392333984375,-6.244668960571289,6.570092678070068,3.9789650440216064
1731409971907197200,4.077197265625,-6.237490653991699,6.629913330078125,4.038785457611084
1731409971917002800,4.087002685546875,-6.235097408294678,6.625127792358398,4.100998878479004
1731409971926809000,4.09680908203125,-6.249454498291016,6.5868425369262695,4.093820571899414
1731409971936614700,4.10661474609375,-6.282954216003418,6.553342819213867,4.065106391906738
1731409971946419500,4.11641943359375,-6.213263034820557,6.450451850891113,3.9933218955993652
1731409971956224800,4.126224853515625,-6.117550373077393,6.352046966552734,3.9167516231536865
1731409971966031400,4.13603125,-6.093621730804443,6.325725555419922,3.8306100368499756
1731409971975836700,4.145836669921875,-6.096014976501465,6.356832504272461,3.81864595413208
1731409971985641500,4.155641357421875,-6.0864434242248535,6.34726095199585,3.809074640274048
1731409971995447000,4.165447021484375,-6.052944183349609,6.3137617111206055,3.8234314918518066
1731409972005253600,4.175253662109375,-6.036194324493408,6.356832504272461,3.91914439201355
1731409972015059000,4.185058837890625,-6.043372631072998,6.4289164543151855,4.038785457611084
1731409972024863700,4.19486376953125,-6.129514217376709,6.474380016326904,4.0435709953308105
1731409972034669300,4.20466943359375,-6.151049613952637,6.493522644042969,3.9861433506011963
1731409972044475600,4.2144755859375,-6.119943141937256,6.536593437194824,3.998107433319092
1731409972054281200,4.22428125,-6.007480144500732,6.613163471221924,3.974179267883301
1731409972064086000,4.2340859375,-6.074479579925537,6.644270420074463,3.9646079540252686
1731409972073891600,4.2438916015625,-6.27577543258667,6.706483840942383,3.935894250869751
1731409972083698000,4.253697998046875,-6.3499531745910645,6.792625427246094,3.9957146644592285
1731409972093503500,4.26350341796875,-6.321238994598389,6.873981475830078,4.153641223907471
1731409972103308300,4.273308349609375,-6.321238994598389,6.845267295837402,4.153641223907471
1731409972113113600,4.283113525390625,-6.242276191711426,6.785446643829346,4.017250061035156
1731409972122920200,4.292920166015625,-6.158228397369385,6.706483840942383,3.8545382022857666
1731409972132725800,4.302725830078125,-6.093621730804443,6.6490559577941895,3.722932815551758
1731409972142530300,4.3125302734375,-6.0864434242248535,6.608377933502197,3.61017107963562
1731409972152336100,4.322336181640625,-6.096014976501465,6.572485446929932,3.5886356830596924
1731409972162142500,4.332142578125,-6.115157604217529,6.572485446929932,3.5982069969177246
1731409972171947800,4.34194775390625,-6.170192241668701,6.577271461486816,3.7181472778320312
1731409972181752600,4.351752685546875,-6.251847267150879,6.615556240081787,3.7899320125579834
1731409972191558100,4.36155810546875,-6.282954216003418,6.6729841232299805,3.828217029571533
1731409972201364500,4.371364501953125,-6.266204357147217,6.627520561218262,3.8306100368499756
1731409972211170000,4.381170166015625,-6.206084728240967,6.565307140350342,3.8066816329956055
1731409972220974800,4.390974853515625,-6.136693000793457,6.550950050354004,3.7755749225616455
1731409972230780400,4.400780517578125,-6.0768723487854,6.637091636657715,3.7683966159820557
1731409972240586800,4.410586669921875,-5.978766441345215,6.692126750946045,3.7731821537017822
1731409972250392300,4.420392333984375,-5.880660533905029,6.718447685241699,3.7612180709838867
1731409972260197000,4.430197021484375,-5.823233127593994,6.766304016113281,3.8162529468536377
1731409972270002700,4.440002685546875,-5.7873406410217285,6.811768054962158,3.9143588542938232
1731409972279809000,4.44980908203125,-5.720341682434082,6.86680269241333,3.9789650440216064
1731409972289614600,4.459614501953125,-5.621936798095703,6.917052268981934,4.053142547607422
1731409972299419100,4.469419189453125,-5.521438121795654,6.977171897888184,4.100998878479004
1731409972309225000,4.479224853515625,-5.459224700927734,7.015456676483154,4.108177185058594
1731409972319031300,4.48903125,-5.394618511199951,7.05852746963501,4.098606109619141
1731409972328836600,4.498836669921875,-5.318048477172852,7.077670097351074,4.024428367614746
1731409972338641400,4.508641357421875,-5.322834014892578,7.084848880767822,4.01246452331543
1731409972348447000,4.518447021484375,-5.466403484344482,7.04417085647583,4.00528621673584
1731409972358253300,4.52825341796875,-5.531009674072266,7.0393853187561035,4.026821613311768
1731409972368059000,4.538058837890625,-5.61954402923584,7.094419956207275,4.110570430755615
1731409972377863700,4.54786376953125,-5.674878120422363,7.147062301635742,4.163212299346924
1731409972387669200,4.557669189453125,-5.732305526733398,7.1973114013671875,4.182354927062988
1731409972397475600,4.5674755859375,-5.806483268737793,7.199704170227051,4.117748737335205
1731409972407281200,4.57728125,-5.86630392074585,7.163811683654785,4.057928085327148
1731409972417086000,4.5870859375,-5.940481185913086,7.130312442779541,3.990929126739502
1731409972426891500,4.5968916015625,-5.957231044769287,7.108777046203613,3.9023945331573486
1731409972436697900,4.60669775390625,-6.0146589279174805,7.060920715332031,3.842574119567871
1731409972446503400,4.61650341796875,-5.966802597045898,6.98195743560791,3.8162529468536377
1731409972456308200,4.62630810546875,-5.8734822273254395,6.933801651000977,3.864109516143799
1731409972466113800,4.63611376953125,-5.849554061889648,6.938587665557861,3.9933218955993652
1731409972475920100,4.645920166015625,-5.878267765045166,6.890730857849121,4.031607151031494
1731409972485725400,4.655725341796875,-5.9285173416137695,6.833303451538086,3.990929126739502
1731409972495530200,4.6655302734375,-5.9907307624816895,6.8309102058410645,3.9861433506011963
1731409972505335800,4.675335693359375,-6.009873390197754,6.826124668121338,3.9406797885894775
1731409972515142100,4.68514208984375,-5.978766441345215,6.732804775238037,3.9239299297332764
1731409972524947700,4.69494775390625,-5.880660533905029,6.670591354370117,3.8784663677215576
1731409972534752500,4.70475244140625,-5.825625896453857,6.627520561218262,3.833002805709839
1731409972544558000,4.71455810546875,-5.780162334442139,6.560521602630615,3.7971103191375732
1731409972554364400,4.724364501953125,-5.722734451293945,6.476772785186768,3.7420754432678223
1731409972564170000,4.734169921875,-5.61236572265625,6.414559364318848,3.6894333362579346
1731409972573974800,4.743974853515625,-5.5692949295043945,6.40229606628418,3.699004650115967
1731409972583780400,4.7537802734375,-5.583651542663574,6.457630157470703,3.7612180709838867
1731409972593586700,4.763586669921875,-5.722734451293945,6.498308181762695,3.8449668884277344
1731409972603392300,4.773392333984375,-5.909374713897705,6.553342819213867,3.9311084747314453
1731409972613197000,4.783197021484375,-6.09122896194458,6.634698867797852,4.098606109619141
1731409972623002600,4.793002685546875,-6.235097408294678,6.747161865234375,4.240081787109375
1731409972632809000,4.80280908203125,-6.347560405731201,6.823731899261475,4.273581027984619
1731409972642614300,4.8126142578125,-6.333203315734863,6.854838848114014,4.275974273681641
1731409972652419000,4.822419189453125,-6.278168201446533,6.850052833557129,4.240081787109375
1731409972662224600,4.832224609375,-6.213263034820557,6.8141608238220215,4.230510234832764
1731409972672031200,4.84203125,-6.1342997550964355,6.7447686195373535,4.170390605926514
1731409972681836500,4.85183642578125,-5.993123531341553,6.7040910720825195,4.134498596191406
1731409972691641300,4.861641357421875,-5.909374713897705,6.692126750946045,4.132105827331543
1731409972701447000,4.871447021484375,-5.837589740753174,6.68016242980957,4.1368913650512695
1731409972711253200,4.881253173828125,-5.890232086181641,6.675376892089844,4.194318771362305
1731409972721058800,4.891058837890625,-5.930910110473633,6.6729841232299805,4.2209391593933105
1731409972730863600,4.900863525390625,-5.950052738189697,6.6969122886657715,4.266402721405029
1731409972740669200,4.910669189453125,-6.019444465637207,6.711269378662109,4.285545349121094
1731409972750475500,4.9204755859375,-6.08405065536499,6.658627033233643,4.1991047859191895
1731409972760281000,4.930281005859375,-6.115157604217529,6.5629143714904785,4.100998878479004
1731409972770086000,4.9400859375,-6.1342997550964355,6.555736064910889,4.100998878479004
1731409972779891500,4.949891357421875,-6.079265117645264,6.596413612365723,4.170390605926514
1731409972789697800,4.95969775390625,-6.048158168792725,6.639484405517578,4.240081787109375
1731409972799503400,4.96950341796875,-6.105586051940918,6.644270420074463,4.141676902770996
1731409972809308200,4.97930810546875,-6.143871307373047,6.639484405517578,4.165605068206787
1731409972819113700,4.98911376953125,-6.127121448516846,6.632306098937988,4.280759811401367
1731409972828920000,4.998920166015625,-6.048158168792725,6.608377933502197,4.211368083953857
1731409972838725400,5.008725341796875,-6.040979862213135,6.687341213226318,4.299902439117432
1731409972848530200,5.0185302734375,-6.043372631072998,6.7351975440979,4.278367042541504
1731409972858335700,5.028335693359375,-6.057729721069336,6.785446643829346,4.244867324829102
1731409972868142300,5.038142333984375,-6.045765399932861,6.85244607925415,4.244867324829102
1731409972877947600,5.04794775390625,-5.976373672485352,6.792625427246094,4.235296249389648
1731409972887752400,5.05775244140625,-5.954838275909424,6.716054916381836,4.278367042541504
1731409972897558000,5.06755810546875,-5.940481185913086,6.661019802093506,4.3549370765686035
1731409972907364400,5.0773642578125,-5.923731327056885,6.661019802093506,4.4243292808532715
1731409972917170000,5.087169921875,-5.9907307624816895,6.670591354370117,4.488935470581055
1731409972926974700,5.096974609375,-5.973980903625488,6.8380889892578125,4.4961137771606445
1731409972936780300,5.1067802734375,-5.8351969718933105,6.950551509857178,4.493721008300781
1731409972946586600,5.116586669921875,-5.909374713897705,6.890730857849121,4.479363918304443
1731409972956392200,5.12639208984375,-5.926124572753906,6.8620171546936035,4.460221290588379
1731409972966197000,5.136197021484375,-5.9524455070495605,6.86680269241333,4.488935470581055
1731409972976002600,5.14600244140625,-5.969195365905762,6.706483840942383,4.388436794281006
1731409972985809000,5.155808837890625,-5.777769565582275,6.931408882141113,4.527220249176025
1731409972995614500,5.165614501953125,-5.775376319885254,7.089634418487549,4.577469825744629
1731409973005419300,5.175419189453125,-5.847161293029785,6.986742973327637,4.335794448852539
1731409973015224600,5.185224609375,-5.839982986450195,6.938587665557861,4.158426761627197
1731409973025031200,5.19503125,-5.820840358734131,7.003492832183838,4.072285175323486
1731409973034836500,5.20483642578125,-5.669793128967285,7.147062301635742,4.148855209350586
1731409973044641300,5.214641357421875,-5.696413516998291,7.156633377075195,4.225724697113037
1731409973054446800,5.22444677734375,-5.7394843101501465,7.010671138763428,4.069892406463623
1731409973064253200,5.234253173828125,-5.765805244445801,6.9098734855651855,4.069892406463623
1731409973074058800,5.244058837890625,-5.7873406410217285,6.881159782409668,4.0435709953308105
1731409973083863600,5.253863525390625,-5.863911151885986,6.8380889892578125,4.002892971038818
1731409973093669000,5.263669189453125,-5.883053779602051,6.85962438583374,3.974179267883301
1731409973103475500,5.273475341796875,-5.871089458465576,6.840481758117676,3.9406797885894775
1731409973113281000,5.283281005859375,-5.808876037597656,6.857231616973877,3.9239299297332764
1731409973123085800,5.2930859375,-5.753840923309326,6.850052833557129,3.81864595413208
1731409973132891400,5.302891357421875,-5.629115104675293,6.8859453201293945,3.7660038471221924
1731409973142697700,5.31269775390625,-5.542973518371582,6.900302410125732,3.667897939682007
1731409973152503300,5.32250341796875,-5.4281182289123535,6.8859453201293945,3.5359935760498047
1731409973162308000,5.33230810546875,-5.270191669464111,6.847660064697266,3.366103172302246
1731409973172113700,5.34211376953125,-5.021039009094238,6.795018196105957,3.2991042137145996
1731409973181920000,5.351919921875,-4.714757919311523,6.737590312957764,3.339782238006592
1731409973191725600,5.3617255859375,-4.460819721221924,6.692126750946045,3.387638568878174
1731409973201530000,5.371530029296875,-4.539782524108887,6.6969122886657715,3.4498519897460938
1731409973211336000,5.3813359375,-4.846363067626953,6.775875568389893,3.5192439556121826
1731409973221142300,5.391142333984375,-5.315655708312988,6.960123062133789,3.631706476211548
1731409973230947600,5.400947509765625,-5.751448154449463,7.204489707946777,3.777967929840088
1731409973240752400,5.41075244140625,-6.0625152587890625,7.438986301422119,3.873680830001831
1731409973250558200,5.42055810546875,-6.237490653991699,7.582854747772217,3.943072557449341
1731409973260364500,5.430364501953125,-6.225227355957031,7.690532207489014,3.9646079540252686
1731409973270169900,5.440169921875,-6.131906986236572,7.7455668449401855,3.9646079540252686
1731409973279974700,5.449974609375,-6.043372631072998,7.70249605178833,3.935894250869751
1731409973289780200,5.4597802734375,-5.8974103927612305,7.623532772064209,3.9023945331573486
1731409973299586600,5.469586669921875,-5.74187707901001,7.52512788772583,3.9023945331573486
1731409973309392100,5.47939208984375,-5.559723377227783,7.412665367126465,3.895216226577759
1731409973319197000,5.489197021484375,-5.449653625488281,7.29302453994751,3.8688950538635254
1731409973329002500,5.49900244140625,-5.394618511199951,7.240382194519043,3.8688950538635254
1731409973338808800,5.508808837890625,-5.413761138916016,7.223632335662842,3.895216226577759
1731409973348614400,5.518614501953125,-5.511867046356201,7.194918632507324,3.9335012435913086
1731409973358419200,5.528419189453125,-5.641079425811768,7.108777046203613,3.9717864990234375
1731409973368224800,5.538224853515625,-5.717948913574219,7.025028228759766,3.998107433319092
1731409973378031000,5.548031005859375,-5.7634124755859375,6.996314525604248,4.055535316467285
1731409973387836700,5.557836669921875,-5.902195930480957,6.919445037841797,4.00528621673584
1731409973397641500,5.567641357421875,-5.9285173416137695,6.845267295837402,3.91914439201355
1731409973407447000,5.577447021484375,-5.861518383026123,6.842874526977539,3.840181350708008
1731409973417253400,5.58725341796875,-5.940481185913086,6.828517436981201,3.699004650115967
1731409973427059000,5.597058837890625,-5.973980903625488,6.706483840942383,3.5359935760498047
1731409973436863700,5.60686376953125,-5.875874996185303,6.622735023498535,3.4713873863220215
1731409973446669300,5.61666943359375,-5.674878120422363,6.565307140350342,3.5336008071899414
1731409973456475600,5.6264755859375,-5.590830326080322,6.57966423034668,3.631706476211548
1731409973466281200,5.63628125,-5.629115104675293,6.6107707023620605,3.670290946960449
1731409973476086000,5.6460859375,-5.62672233581543,6.615556240081787,3.6559338569641113
1731409973485891300,5.655891357421875,-5.588437080383301,6.625127792358398,3.7372899055480957
1731409973495698000,5.665697998046875,-5.5860443115234375,6.658627033233643,3.842574119567871
1731409973505503200,5.675503173828125,-5.657829284667969,6.651448726654053,3.890430450439453
1731409973515308000,5.68530810546875,-5.708377361297607,6.7040910720825195,3.9311084747314453
1731409973525113900,5.69511376953125,-5.830411434173584,6.795018196105957,3.9789650440216064
1731409973534920200,5.704920166015625,-5.8974103927612305,6.893123626708984,4.0196428298950195
1731409973544725500,5.7147255859375,-5.624329566955566,6.955337047576904,4.002892971038818
1731409973554530300,5.7245302734375,-6.632306098937988,6.979564666748047,4.0435709953308105
1731409973564336000,5.734336181640625,-4.992325305938721,7.029813766479492,3.9813578128814697
1731409973574142500,5.744142578125,-6.895815849304199,7.015456676483154,4.079463481903076
1731409973583947800,5.75394775390625,-4.800899505615234,7.034599304199219,3.9789650440216064
1731409973593752600,5.763752685546875,-6.778268337249756,7.123134136199951,4.100998878479004
1731409973603558100,5.77355810546875,-4.985146999359131,7.11356258392334,4.038785457611084
1731409973613364500,5.783364501953125,-6.2566328048706055,7.0800628662109375,4.1368913650512695
1731409973623170000,5.793170166015625,-5.44008207321167,6.943373203277588,4.060320854187012
1731409973632974800,5.802974853515625,-5.5142598152160645,6.972385883331299,4.077070713043213
1731409973642780400,5.812780517578125,-6.050550937652588,6.893123626708984,4.077070713043213
1731409973652586800,5.822586669921875,-4.932504653930664,6.962515830993652,4.1057844161987305
1731409973662392300,5.832392333984375,-6.7280192375183105,6.869195461273193,4.225724697113037
1731409973672197000,5.842197021484375,-4.772185802459717,6.806982040405273,4.124927043914795
1731409973682002700,5.852002685546875,-6.9221367835998535,6.713662147521973,4.172783374786377
1731409973691809000,5.86180908203125,-4.772185802459717,6.737590312957764,4.048357009887695
1731409973701614600,5.871614501953125,-6.625127792358398,6.756732940673828,4.203890323638916
1731409973711419400,5.88141943359375,-5.188836097717285,6.677769660949707,4.144069671630859
1731409973721225000,5.891224853515625,-6.131906986236572,6.637091636657715,4.196712017059326
1731409973731031300,5.90103125,-5.861518383026123,6.527021884918213,4.211368083953857
1731409973740836900,5.9108369140625,-5.705984592437744,6.565307140350342,4.268795490264893
1731409973750641700,5.9206416015625,-5.911767482757568,6.512664794921875,4.280759811401367
1731409973760447200,5.930447265625,-6.0625152587890625,6.558128833770752,4.295116424560547
1731409973770253600,5.940253662109375,-5.938088417053223,6.570092678070068,4.3070807456970215
1731409973780059100,5.95005908203125,-6.129514217376709,6.596413612365723,4.338187217712402
1731409973789864000,5.959864013671875,-6.052944183349609,6.615556240081787,4.3788652420043945
1731409973799669500,5.96966943359375,-6.050550937652588,6.646663188934326,4.4410786628723145
1731409973809475800,5.979475830078125,-6.007480144500732,6.608377933502197,4.498506546020508
1731409973819281400,5.989281494140625,-5.995516300201416,6.6107707023620605,4.524827480316162
1731409973829086200,5.999086181640625,-6.045765399932861,6.613163471221924,4.551148891448975
1731409973838891800,6.008891845703125,-6.050550937652588,6.596413612365723,4.510470867156982
1731409973848698000,6.018697998046875,-6.0625152587890625,6.5868425369262695,4.474578380584717
1731409973858503700,6.028503662109375,-6.074479579925537,6.558128833770752,4.462614059448242
1731409973868308500,6.03830859375,-6.081657886505127,6.543771743774414,4.467400074005127
1731409973878114000,6.048114013671875,-6.08405065536499,6.529414653778076,4.486542224884033
1731409973887920400,6.05792041015625,-6.08405065536499,6.558128833770752,4.551148891448975
1731409973897726000,6.067725830078125,-6.148656845092773,6.615556240081787,4.536791801452637
1731409973907530800,6.07753076171875,-6.2204413414001465,6.675376892089844,4.53200626373291
1731409973917336300,6.08733642578125,-6.1965131759643555,6.711269378662109,4.527220249176025
1731409973927142700,6.097142578125,-6.098407745361328,6.694519519805908,4.479363918304443
1731409973936948200,6.1069482421875,-5.983551979064941,6.665805816650391,4.426722049713135
1731409973946753000,6.1167529296875,-5.861518383026123,6.651448726654053,4.400400638580322
1731409973956558600,6.12655859375,-5.8351969718933105,6.620342254638672,4.395615100860596
1731409973966365000,6.136364990234375,-5.847161293029785,6.6107707023620605,4.4243292808532715
1731409973976170500,6.14617041015625,-5.86630392074585,6.625127792358398,4.455435752868652
1731409973985975300,6.155975341796875,-5.890232086181641,6.6490559577941895,4.445864677429199
1731409973995780900,6.16578076171875,-5.880660533905029,6.613163471221924,4.4243292808532715
1731409974005587200,6.175587158203125,-5.9045891761779785,6.6107707023620605,4.4243292808532715
1731409974015392800,6.185392822265625,-5.9213385581970215,6.589235305786133,4.40757942199707
1731409974025197600,6.195197509765625,-5.911767482757568,6.601199626922607,4.369294166564941
1731409974035003100,6.205003173828125,-5.940481185913086,6.603592395782471,4.393222332000732
1731409974044809500,6.2148095703125,-5.86630392074585,6.646663188934326,4.455435752868652
1731409974054615000,6.224614990234375,-5.854339599609375,6.6418776512146,4.486542224884033
1731409974064419800,6.234419921875,-5.839982986450195,6.615556240081787,4.479363918304443
1731409974074225400,6.244225341796875,-5.784947872161865,6.637091636657715,4.474578380584717
1731409974084031700,6.25403173828125,-5.818447589874268,6.725626468658447,4.493721008300781
1731409974093837300,6.26383740234375,-5.933302879333496,6.694519519805908,4.433900356292725
1731409974103642000,6.27364208984375,-5.9213385581970215,6.6729841232299805,4.376472473144531
1731409974113447700,6.28344775390625,-5.859125137329102,6.694519519805908,4.3788652420043945
1731409974123254000,6.29325390625,-5.792126178741455,6.723233222961426,4.386044025421143
1731409974133059600,6.3030595703125,-5.80409049987793,6.7447686195373535,4.3549370765686035
1731409974142864400,6.312864501953125,-5.801697731018066,6.711269378662109,4.321437835693359
1731409974152670000,6.322669921875,-5.782555103302002,6.7040910720825195,4.3070807456970215
1731409974162476500,6.3324765625,-5.770590782165527,6.687341213226318,4.311866283416748
1731409974172281900,6.34228173828125,-5.761019706726074,6.713662147521973,4.302295207977295
1731409974182086700,6.352086669921875,-5.7394843101501465,6.747161865234375,4.314259052276611
1731409974191892500,6.361892578125,-5.73469877243042,6.754340171813965,4.366901397705078
1731409974201698800,6.37169873046875,-5.753840923309326,6.701697826385498,4.335794448852539
1731409974211504000,6.381504150390625,-5.725127220153809,6.684948444366455,4.357329845428467
1731409974221309000,6.391308837890625,-5.727519989013672,6.706483840942383,4.366901397705078
1731409974231114800,6.40111474609375,-5.782555103302002,6.687341213226318,4.359723091125488
1731409974240921000,6.410921142578125,-5.756234169006348,6.694519519805908,4.371686935424805
1731409974250726700,6.4207265625,-5.758626937866211,6.665805816650391,4.383651256561279
1731409974260531200,6.43053125,-5.7634124755859375,6.656234264373779,4.42193603515625
1731409974270337000,6.4403369140625,-5.794518947601318,6.687341213226318,4.4243292808532715
1731409974280143400,6.450143310546875,-5.837589740753174,6.7351975440979,4.409972190856934
1731409974289949000,6.459948974609375,-5.861518383026123,6.761518478393555,4.40757942199707
1731409974299753700,6.469753662109375,-5.883053779602051,6.792625427246094,4.431507587432861
1731409974309559300,6.479559326171875,-5.887839317321777,6.799803733825684,4.4482574462890625
1731409974319365600,6.48936572265625,-5.847161293029785,6.80458927154541,4.445864677429199
1731409974329171200,6.499171142578125,-5.79691219329834,6.80458927154541,4.450650215148926
1731409974338976000,6.50897607421875,-5.837589740753174,6.725626468658447,4.398007869720459
1731409974348781600,6.518781494140625,-5.784947872161865,6.670591354370117,4.316651821136475
1731409974358588000,6.528587890625,-5.792126178741455,6.692126750946045,4.328616142272949
1731409974368393500,6.5383935546875,-5.832804203033447,6.713662147521973,4.333401679992676
1731409974378198300,6.5481982421875,-5.859125137329102,6.701697826385498,4.3310089111328125
1731409974388003800,6.55800390625,-5.906981945037842,6.68016242980957,4.302295207977295
1731409974397810200,6.56781005859375,-5.933302879333496,6.68016242980957,4.297509670257568
1731409974407615700,6.57761572265625,-5.899803161621094,6.670591354370117,4.278367042541504
1731409974417420500,6.587420654296875,-5.861518383026123,6.68016242980957,4.2592244148254395
1731409974427226000,6.59722607421875,-5.792126178741455,6.663413047790527,4.235296249389648
1731409974437032400,6.607032470703125,-5.7634124755859375,6.670591354370117,4.2281174659729
1731409974446838000,6.616838134765625,-5.80409049987793,6.689733982086182,4.230510234832764
1731409974456642800,6.626642822265625,-5.801697731018066,6.7208404541015625,4.268795490264893
1731409974466448600,6.63644873046875,-5.780162334442139,6.739983081817627,4.319045066833496
1731409974476255000,6.6462548828125,-5.782555103302002,6.759125709533691,4.328616142272949
1731409974486060300,6.656060302734375,-5.772983551025391,6.756732940673828,4.254438877105713
1731409974495865000,6.665864990234375,-5.705984592437744,6.759125709533691,4.2281174659729
1731409974505671000,6.6756708984375,-5.684449195861816,6.763911247253418,4.223331928253174
1731409974515477200,6.685477294921875,-5.6554365158081055,6.759125709533691,4.230510234832764
1731409974525282800,6.69528271484375,-5.605186939239502,6.751947402954102,4.2281174659729
1731409974535087600,6.705087646484375,-5.523830890655518,6.723233222961426,4.191926002502441
1731409974544893200,6.71489306640625,-5.454439163208008,6.706483840942383,4.179962158203125
1731409974554699500,6.724699462890625,-5.423332691192627,6.711269378662109,4.211368083953857
1731409974564505000,6.734505126953125,-5.464010715484619,6.761518478393555,4.261617183685303
1731409974574310000,6.744309814453125,-5.542973518371582,6.8309102058410645,4.328616142272949
1731409974584115500,6.754115478515625,-5.621936798095703,6.883552551269531,4.398007869720459
1731409974593921800,6.763921875,-5.696413516998291,6.912266254425049,4.4410786628723145
1731409974603727400,6.773727294921875,-5.789733409881592,6.938587665557861,4.4721856117248535
1731409974613532200,6.7835322265625,-5.825625896453857,6.931408882141113,4.462614059448242
1731409974623337700,6.793337646484375,-5.799304962158203,6.933801651000977,4.4721856117248535
1731409974633144000,6.80314404296875,-5.746662616729736,6.957729816436768,4.438685894012451
1731409974642950000,6.812949951171875,-5.677270889282227,6.991528511047363,4.462614059448242
1731409974652754400,6.82275439453125,-5.600401401519775,7.027420997619629,4.462614059448242
1731409974662560300,6.832560302734375,-5.552545070648193,7.0561347007751465,4.431507587432861
1731409974672366600,6.84236669921875,-5.56450891494751,7.0633134841918945,4.436293125152588
1731409974682172000,6.852171875,-5.605186939239502,7.036992073059082,4.450650215148926
1731409974691976700,6.861976806640625,-5.645864963531494,6.979564666748047,4.426722049713135
1731409974701782500,6.871782470703125,-5.7394843101501465,6.912266254425049,4.350151538848877
1731409974711588900,6.8815888671875,-5.756234169006348,6.845267295837402,4.319045066833496
1731409974721394400,6.89139453125,-5.878267765045166,6.751947402954102,4.268795490264893
1731409974731199200,6.90119921875,-5.875874996185303,6.644270420074463,4.247260093688965
1731409974741004800,6.9110048828125,-5.832804203033447,6.663413047790527,4.252045631408691
1731409974750811100,6.92081103515625,-5.933302879333496,6.622735023498535,4.177569389343262
1731409974760616700,6.93061669921875,-5.863911151885986,6.6107707023620605,4.091427803039551
1731409974770421500,6.94042138671875,-5.80409049987793,6.6490559577941895,4.084249019622803
1731409974780227000,6.95022705078125,-5.722734451293945,6.749554634094238,4.170390605926514
1731409974790033400,6.960033447265625,-5.708377361297607,6.766304016113281,4.237689018249512
1731409974799839000,6.9698388671875,-5.725127220153809,6.74237585067749,4.244867324829102
1731409974809643800,6.979643798828125,-5.7155561447143555,6.670591354370117,4.223331928253174
1731409974819449300,6.989449462890625,-5.660222053527832,6.639484405517578,4.225724697113037
1731409974829255700,6.999255615234375,-5.650650501251221,6.663413047790527,4.266402721405029
1731409974839061500,7.0090615234375,-5.665007591247559,6.6729841232299805,4.29033088684082
1731409974848866000,7.018865966796875,-5.667400360107422,6.725626468658447,4.323830604553223
1731409974858671900,7.028671875,-5.725127220153809,6.766304016113281,4.350151538848877
1731409974868478200,7.038478271484375,-5.74187707901001,6.74237585067749,4.3788652420043945
1731409974878283800,7.04828369140625,-5.737091541290283,6.723233222961426,4.393222332000732
1731409974888088600,7.058088623046875,-5.7873406410217285,6.7208404541015625,4.390829563140869
1731409974897894100,7.06789404296875,-5.854339599609375,6.732804775238037,4.398007869720459
1731409974907700500,7.077700439453125,-5.914160251617432,6.759125709533691,4.431507587432861
1731409974917506000,7.087506103515625,-5.997909069061279,6.775875568389893,4.419543266296387
1731409974927310800,7.097310791015625,-6.050550937652588,6.792625427246094,4.412364959716797
1731409974937116400,7.107116455078125,-6.031408786773682,6.785446643829346,4.3788652420043945
1731409974946922800,7.1169228515625,-6.026622772216797,6.7447686195373535,4.323830604553223
1731409974956728600,7.126728515625,-6.007480144500732,6.713662147521973,4.280759811401367
1731409974966533000,7.136533203125,-5.938088417053223,6.754340171813965,4.264009952545166
1731409974976339000,7.1463388671875,-5.950052738189697,6.792625427246094,4.2592244148254395
1731409974986145300,7.156145263671875,-5.906981945037842,6.799803733825684,4.335794448852539
1731409974995950800,7.165950927734375,-5.9524455070495605,6.689733982086182,4.4410786628723145
1731409975005755600,7.175755615234375,-5.844768524169922,6.637091636657715,4.381258487701416
1731409975015561200,7.185561279296875,-5.801697731018066,6.629913330078125,4.3310089111328125
1731409975025367600,7.195367431640625,-5.8112688064575195,6.684948444366455,4.304687976837158
1731409975035173000,7.205173095703125,-5.794518947601318,6.6969122886657715,4.287938117980957
1731409975044978000,7.21497802734375,-5.830411434173584,6.6418776512146,4.230510234832764
1731409975054783500,7.224783447265625,-5.8351969718933105,6.567699909210205,4.175176620483398
1731409975064589800,7.23458984375,-5.847161293029785,6.560521602630615,4.158426761627197
1731409975074395400,7.2443955078125,-5.899803161621094,6.534200668334961,4.16799783706665
1731409975084200200,7.2542001953125,-5.9452667236328125,6.548557281494141,4.1991047859191895
1731409975094005800,7.264005859375,-5.95962381362915,6.574878215789795,4.189533233642578
1731409975103812400,7.273812255859375,-5.969195365905762,6.596413612365723,4.201497554779053
1731409975113617700,7.28361767578125,-5.954838275909424,6.584449768066406,4.2281174659729
1731409975123422500,7.29342236328125,-5.964409351348877,6.572485446929932,4.273581027984619
1731409975133228300,7.303228271484375,-5.926124572753906,6.567699909210205,4.280759811401367
1731409975143034600,7.31303466796875,-5.916553020477295,6.589235305786133,4.278367042541504
1731409975152840200,7.322840087890625,-6.007480144500732,6.653841495513916,4.232903480529785
1731409975162645000,7.33264501953125,-5.9907307624816895,6.716054916381836,4.216153621673584
1731409975172450600,7.342450439453125,-6.105586051940918,6.754340171813965,4.295116424560547
1731409975182257000,7.3522568359375,-6.096014976501465,6.8380889892578125,4.364508628845215
1731409975192062500,7.3620625,-6.067300796508789,6.931408882141113,4.400400638580322
1731409975201867300,7.3718671875,-5.9524455070495605,6.977171897888184,4.376472473144531
1731409975211672800,7.3816728515625,-5.8734822273254395,6.97477912902832,4.388436794281006
1731409975221479400,7.3914794921875,-5.744269847869873,6.972385883331299,4.347758769989014
1731409975231285000,7.401284912109375,-5.641079425811768,6.933801651000977,4.302295207977295
1731409975241089500,7.411089599609375,-5.703591823577881,6.85244607925415,4.196712017059326
1731409975250895400,7.420895263671875,-5.674878120422363,6.845267295837402,4.072285175323486
1731409975260701700,7.43070166015625,-5.689234733581543,6.895516872406006,4.077070713043213
1731409975270507300,7.44050732421875,-5.74187707901001,6.991528511047363,4.2209391593933105
1731409975280312000,7.45031201171875,-5.780162334442139,7.048956394195557,4.328616142272949
1731409975290117600,7.46011767578125,-5.820840358734131,7.068099021911621,4.34536600112915
1731409975299924000,7.469924072265625,-5.863911151885986,7.065706253051758,4.287938117980957
1731409975309729800,7.479729736328125,-5.839982986450195,7.05852746963501,4.225724697113037
1731409975319534300,7.489534423828125,-5.816054344177246,7.022635459899902,4.163212299346924
1731409975329340200,7.499340087890625,-5.79691219329834,6.950551509857178,4.093820571899414
1731409975339146500,7.509146484375,-5.784947872161865,6.893123626708984,4.024428367614746
1731409975348952000,7.5189521484375,-5.765805244445801,6.821339130401611,3.983750581741333
1731409975358756900,7.5287568359375,-5.758626937866211,6.773482799530029,3.9478583335876465
1731409975368562400,7.5385625,-5.682056427001953,6.7280192375183105,4.000500202178955
1731409975378368800,7.54836865234375,-5.7394843101501465,6.684948444366455,3.9813578128814697
1731409975388174300,7.55817431640625,-5.629115104675293,6.620342254638672,3.974179267883301
1731409975397979100,7.567979248046875,-5.5932230949401855,6.639484405517578,3.990929126739502
1731409975407785000,7.577784912109375,-5.7490553855896,6.632306098937988,3.91914439201355
1731409975417591300,7.58759130859375,-5.777769565582275,6.603592395782471,3.8210387229919434
1731409975427396900,7.59739697265625,-5.875874996185303,6.620342254638672,3.833002805709839
1731409975437201700,7.60720166015625,-5.899803161621094,6.6969122886657715,3.904787540435791
1731409975447007200,7.61700732421875,-5.914160251617432,6.756732940673828,4.00528621673584
1731409975456813600,7.6268134765625,-5.964409351348877,6.8141608238220215,4.022035598754883
1731409975466619100,7.636619140625,-5.971588134765625,6.847660064697266,3.9717864990234375
1731409975476424000,7.646423828125,-5.993123531341553,6.883552551269531,3.9406797885894775
1731409975486229800,7.656229736328125,-6.005087375640869,6.938587665557861,3.9646079540252686
1731409975496036000,7.6660361328125,-5.973980903625488,6.977171897888184,4.022035598754883
1731409975505841700,7.675841552734375,-5.935695648193359,7.027420997619629,4.038785457611084
1731409975515646500,7.685646484375,-5.914160251617432,7.048956394195557,4.053142547607422
1731409975525452000,7.6954521484375,-5.935695648193359,7.05852746963501,4.062713623046875
1731409975535258400,7.70525830078125,-5.9045891761779785,7.0393853187561035,4.077070713043213
1731409975545064200,7.715064208984375,-5.887839317321777,6.993921279907227,4.077070713043213
1731409975554868700,7.72486865234375,-5.887839317321777,6.933801651000977,4.067499160766602
1731409975564674600,7.734674560546875,-5.899803161621094,6.919445037841797,4.091427803039551
1731409975574481000,7.74448095703125,-5.935695648193359,6.938587665557861,4.1057844161987305
1731409975584286500,7.754286376953125,-6.026622772216797,6.957729816436768,4.072285175323486
1731409975594091300,7.76409130859375,-6.0864434242248535,6.969694137573242,4.055535316467285
1731409975603896800,7.773896728515625,-6.079265117645264,6.977171897888184,4.067499160766602
1731409975613703400,7.783703369140625,-6.048158168792725,6.943373203277588,4.077070713043213
1731409975623509000,7.793509033203125,-5.954838275909424,6.9098734855651855,4.00528621673584
1731409975633313800,7.803313720703125,-5.808876037597656,6.876374244689941,3.91914439201355
1731409975643119400,7.813119384765625,-5.780162334442139,6.806982040405273,3.81864595413208
1731409975652925700,7.82292578125,-5.761019706726074,6.723233222961426,3.6942191123962402
1731409975662731300,7.832731201171875,-5.710770130157471,6.749554634094238,3.660719633102417
1731409975672536000,7.8425361328125,-5.7634124755859375,6.806982040405273,3.6631124019622803
1731409975682341600,7.852341552734375,-5.7394843101501465,6.869195461273193,3.6460635662078857
1731409975692148200,7.862148193359375,-5.705984592437744,6.873981475830078,3.667897939682007
1731409975701953800,7.871953857421875,-5.689234733581543,6.881159782409668,3.6655051708221436
1731409975711758600,7.881758544921875,-5.669793128967285,6.890730857849121,3.691826343536377
1731409975721564200,7.891564208984375,-5.672185897827148,6.955337047576904,3.7588253021240234
1731409975731370500,7.90137060546875,-5.701199054718018,6.993921279907227,3.777967929840088
1731409975741176300,7.91117626953125,-5.7155561447143555,7.027420997619629,3.780360698699951
1731409975750980900,7.92098095703125,-5.720341682434082,7.027420997619629,3.770789384841919
1731409975760786700,7.93078662109375,-5.669793128967285,7.020242691040039,3.76361083984375
1731409975770593000,7.940593017578125,-5.710770130157471,7.0633134841918945,3.780360698699951
1731409975780398600,7.950398681640625,-5.758626937866211,7.089634418487549,3.8473596572875977
1731409975790203400,7.960203369140625,-5.73469877243042,7.154240608215332,3.8473596572875977
1731409975800009000,7.970009033203125,-5.710770130157471,7.211668491363525,3.8449668884277344
1731409975809815600,7.979815673828125,-5.669793128967285,7.259524822235107,3.8234314918518066
1731409975819621000,7.98962109375,-5.602794170379639,7.276274681091309,3.809074640274048
1731409975829426000,7.999426025390625,-5.528616905212402,7.252346515655518,3.7588253021240234
1731409975839231500,8.0092314453125,-5.473581790924072,7.187740325927734,3.7253258228302
1731409975849038000,8.0190380859375,-5.423332691192627,7.144669532775879,3.70139741897583
1731409975858843400,8.028843505859374,-5.375475883483887,7.070491790771484,3.7205400466918945
1731409975868648400,8.0386484375,-5.325226783752441,6.996314525604248,3.7612180709838867
1731409975878454000,8.0484541015625,-5.291727066040039,6.938587665557861,3.7612180709838867
1731409975888260400,8.05826025390625,-5.392225742340088,6.950551509857178,3.7683966159820557
1731409975898066200,8.068066162109375,-5.660222053527832,7.017849922180176,3.7827534675598145
1731409975907870700,8.07787060546875,-5.933302879333496,7.103991508483887,3.859323740005493
1731409975917676500,8.087676513671875,-6.052944183349609,7.16859769821167,3.943072557449341
1731409975927483000,8.09748291015625,-6.069693565368652,7.206882476806641,3.9933218955993652
1731409975937288400,8.107288330078125,-6.000301837921143,7.204489707946777,3.943072557449341
1731409975947093200,8.11709326171875,-5.895017623901367,7.242774963378906,3.8784663677215576
1731409975956899000,8.126899169921876,-5.823233127593994,7.226025104522705,3.804288864135742
1731409975966705400,8.136705322265625,-5.694020748138428,7.216454029083252,3.7923247814178467
1731409975976511000,8.146510986328124,-5.621936798095703,7.194918632507324,3.828217029571533
1731409975986315800,8.156315673828125,-5.61954402923584,7.209275722503662,3.8856449127197266
1731409975996121300,8.166121337890624,-5.657829284667969,7.226025104522705,3.91914439201355
1731409976005928000,8.175927978515626,-5.669793128967285,7.199704170227051,3.91914439201355
1731409976015733500,8.1857333984375,-5.641079425811768,7.16859769821167,3.91914439201355
1731409976025538300,8.195538330078126,-5.5860443115234375,7.170990467071533,3.9478583335876465
1731409976035344000,8.20534375,-5.607579708099365,7.130312442779541,3.959822416305542
1731409976045150500,8.215150390625,-5.643472194671631,7.025028228759766,3.9000017642974854
1731409976054956000,8.2249560546875,-5.576473236083984,6.924230575561523,3.880859136581421
1731409976064760800,8.2347607421875,-5.602794170379639,6.8859453201293945,3.8545382022857666
1731409976074566400,8.24456640625,-5.624329566955566,6.768697261810303,3.7516467571258545
1731409976084372700,8.254372802734375,-5.545366287231445,6.7040910720825195,3.6894333362579346
1731409976094178600,8.264178466796874,-5.521438121795654,6.7280192375183105,3.6966118812561035
1731409976103983400,8.2739833984375,-5.5621161460876465,6.80458927154541,3.7827534675598145
1731409976113789000,8.283788818359374,-5.794518947601318,6.869195461273193,3.8521454334259033
1731409976123595300,8.29359521484375,-6.017051696777344,6.92901611328125,3.897608995437622
1731409976133401000,8.303401123046875,-6.13908576965332,6.97477912902832,3.943072557449341
1731409976143205600,8.31320556640625,-6.122335910797119,6.984350204467773,4.01246452331543
1731409976153011500,8.323011474609375,-6.045765399932861,6.986742973327637,4.053142547607422
1731409976162817800,8.33281787109375,-5.997909069061279,6.952944278717041,4.000500202178955
1731409976172623600,8.34262353515625,-5.878267765045166,6.905087947845459,3.959822416305542
1731409976182428200,8.35242822265625,-5.761019706726074,6.864409923553467,3.9239299297332764
1731409976192234000,8.36223388671875,-5.698806285858154,6.823731899261475,3.9000017642974854
1731409976202040300,8.372040283203125,-5.689234733581543,6.821339130401611,3.943072557449341
1731409976211846000,8.381845947265624,-5.737091541290283,6.833303451538086,4.026821613311768
1731409976221650700,8.391650634765625,-5.801697731018066,6.835696220397949,4.065106391906738
1731409976231456500,8.40145654296875,-5.861518383026123,6.79741096496582,4.067499160766602
1731409976241262800,8.411262939453126,-5.918945789337158,6.7447686195373535,4.062713623046875
1731409976251068400,8.421068359375,-5.95962381362915,6.725626468658447,4.0435709953308105
1731409976260873200,8.430873291015626,-5.983551979064941,6.7280192375183105,4.014857292175293
1731409976270679000,8.440678955078125,-5.995516300201416,6.716054916381836,4.0196428298950195
1731409976280485400,8.4504853515625,-5.9907307624816895,6.7351975440979,4.067499160766602
1731409976290291000,8.460291015625,-5.930910110473633,6.749554634094238,4.103391647338867
1731409976300095700,8.470095703125,-5.86630392074585,6.730412006378174,4.151247978210449
1731409976309901600,8.479901611328126,-5.914160251617432,6.653841495513916,4.139284133911133
1731409976319708000,8.4897080078125,-5.859125137329102,6.596413612365723,4.089034557342529
1731409976329513500,8.499513427734374,-5.8974103927612305,6.6107707023620605,4.069892406463623
1731409976339318300,8.509318359375,-5.849554061889648,6.6490559577941895,4.050749778747559
1731409976349124000,8.5191240234375,-5.832804203033447,6.684948444366455,4.084249019622803
1731409976358930400,8.528930419921876,-5.849554061889648,6.661019802093506,4.093820571899414
1731409976368736000,8.538736083984375,-5.820840358734131,6.651448726654053,4.055535316467285
1731409976378540800,8.548540771484374,-5.73469877243042,6.706483840942383,4.108177185058594
1731409976388346600,8.5583466796875,-5.713163375854492,6.79741096496582,4.240081787109375
1731409976398153000,8.568153076171875,-5.746662616729736,6.8620171546936035,4.321437835693359
1731409976407958500,8.57795849609375,-5.732305526733398,6.86680269241333,4.393222332000732
1731409976417763300,8.587763427734375,-5.722734451293945,6.8309102058410645,4.443471431732178
1731409976427569200,8.597569091796874,-5.758626937866211,6.821339130401611,4.48414945602417
1731409976437375500,8.60737548828125,-5.775376319885254,6.799803733825684,4.474578380584717
1731409976447181000,8.61718115234375,-5.751448154449463,6.806982040405273,4.505684852600098
1731409976456985900,8.62698583984375,-5.782555103302002,6.806982040405273,4.524827480316162
1731409976466791700,8.636791748046875,-5.820840358734131,6.8141608238220215,4.508078098297119
1731409976476598000,8.646597900390624,-5.863911151885986,6.840481758117676,4.5200419425964355
1731409976486403800,8.65640380859375,-5.916553020477295,6.857231616973877,4.524827480316162
1731409976496208600,8.666208740234374,-5.9452667236328125,6.842874526977539,4.589433670043945
1731409976506014200,8.67601416015625,-5.947659969329834,6.847660064697266,4.618147850036621
1731409976515820500,8.685820556640625,-5.973980903625488,6.833303451538086,4.632504463195801
1731409976525626400,8.69562646484375,-5.988337993621826,6.828517436981201,4.6372904777526855
1731409976535431200,8.70543115234375,-6.007480144500732,6.795018196105957,4.60857629776001
1731409976545236700,8.71523681640625,-5.985944747924805,6.754340171813965,4.555934429168701
1731409976555043300,8.725043212890625,-5.985944747924805,6.730412006378174,4.493721008300781
1731409976564849000,8.734848876953125,-6.050550937652588,6.747161865234375,4.436293125152588
1731409976574653700,8.74465380859375,-6.170192241668701,6.787839412689209,4.409972190856934
1731409976584459300,8.754459228515625,-6.247061729431152,6.763911247253418,4.371686935424805
1731409976594265600,8.764265625,-6.186942100524902,6.749554634094238,4.316651821136475
1731409976604071400,8.774071533203125,-6.174977779388428,6.739983081817627,4.177569389343262
1731409976613876200,8.783876220703124,-6.1342997550964355,6.7280192375183105,4.057928085327148
1731409976623681800,8.793681884765626,-6.040979862213135,6.7280192375183105,4.038785457611084
1731409976633488100,8.803488037109375,-5.954838275909424,6.7280192375183105,4.086641788482666
1731409976643294000,8.8132939453125,-5.851946830749512,6.708876609802246,4.120141506195068
1731409976653098800,8.8230986328125,-5.777769565582275,6.708876609802246,4.1297125816345215
1731409976662904300,8.832904296875,-5.7873406410217285,6.694519519805908,4.086641788482666
1731409976672711000,8.8427109375,-5.825625896453857,6.713662147521973,4.029214382171631
1731409976682516500,8.8525166015625,-5.801697731018066,6.749554634094238,4.010071754455566
1731409976692321300,8.8623212890625,-5.705984592437744,6.787839412689209,4.057928085327148
1731409976702126800,8.872126953125,-5.717948913574219,6.809374809265137,4.1129631996154785
1731409976711933400,8.881933349609374,-5.708377361297607,6.778268337249756,4.077070713043213
1731409976721739000,8.891739013671875,-5.542973518371582,6.759125709533691,4.031607151031494
1731409976731543800,8.901543701171875,-5.533402442932129,6.74237585067749,4.000500202178955
1731409976741349400,8.911349365234376,-5.535795211791992,6.684948444366455,3.9335012435913086
1731409976751156000,8.921156005859375,-5.437689304351807,6.653841495513916,3.8856449127197266
1731409976760961500,8.93096142578125,-5.36351203918457,6.711269378662109,3.9167516231536865
1731409976770766300,8.940766357421875,-5.344369411468506,6.826124668121338,3.998107433319092
1731409976780572200,8.950572265625,-5.490331649780273,6.945765972137451,4.050749778747559
1731409976790378500,8.96037841796875,-5.67966365814209,7.015456676483154,4.146462440490723
1731409976800184000,8.97018408203125,-5.828018665313721,7.077670097351074,4.244867324829102
1731409976809988900,8.97998876953125,-5.9045891761779785,7.099205493927002,4.34536600112915
1731409976819794700,8.989794677734375,-5.883053779602051,7.094419956207275,4.393222332000732
1731409976829601000,8.99960107421875,-5.8734822273254395,7.053741931915283,4.3070807456970215
1731409976839406600,9.009406494140626,-5.79691219329834,7.001100063323975,4.177569389343262
1731409976849211600,9.019211669921875,-5.701199054718018,6.9481587409973145,4.069892406463623
1731409976859017200,9.029017333984376,-5.621936798095703,6.924230575561523,4.048357009887695
1731409976868823600,9.038823486328125,-5.547759532928467,6.878767013549805,4.057928085327148
1731409976878629400,9.04862939453125,-5.540580749511719,6.8380889892578125,4.077070713043213
1731409976888434200,9.05843408203125,-5.5860443115234375,6.840481758117676,4.065106391906738
1731409976898239700,9.06823974609375,-5.657829284667969,6.833303451538086,4.048357009887695
1731409976908046300,9.07804638671875,-5.713163375854492,6.787839412689209,4.062713623046875
1731409976917852000,9.087851806640625,-5.729912757873535,6.768697261810303,4.086641788482666
1731409976927656700,9.09765673828125,-5.768198013305664,6.768697261810303,4.098606109619141
1731409976937462300,9.107462158203125,-5.8112688064575195,6.751947402954102,4.093820571899414
1731409976947268900,9.117268798828125,-5.806483268737793,6.749554634094238,4.1297125816345215
1731409976957074400,9.127074462890626,-5.768198013305664,6.759125709533691,4.156033992767334
1731409976966879200,9.136879150390625,-5.660222053527832,6.783053874969482,4.1991047859191895
1731409976976684800,9.146684814453126,-5.660222053527832,6.7208404541015625,4.206283092498779
1731409976986491400,9.156491455078125,-5.5932230949401855,6.684948444366455,4.16799783706665
1731409976996297000,9.166296875,-5.55015230178833,6.7280192375183105,4.156033992767334
1731409977006101800,9.176101806640625,-5.571687698364258,6.79741096496582,4.203890323638916
1731409977015907600,9.185907470703125,-5.542973518371582,6.850052833557129,4.278367042541504
1731409977025714000,9.1957138671875,-5.588437080383301,6.8309102058410645,4.316651821136475
1731409977035519500,9.20551953125,-5.631507873535156,6.787839412689209,4.338187217712402
1731409977045324300,9.21532421875,-5.6916279792785645,6.775875568389893,4.383651256561279
1731409977055130000,9.225130126953125,-5.799304962158203,6.780661106109619,4.436293125152588
1731409977064936400,9.2349365234375,-5.832804203033447,6.799803733825684,4.493721008300781
1731409977074742000,9.244741943359376,-5.820840358734131,6.881159782409668,4.505684852600098
1731409977084546800,9.254546875,-5.837589740753174,6.938587665557861,4.515256404876709
1731409977094352600,9.2643525390625,-5.830411434173584,7.010671138763428,4.4961137771606445
1731409977104159000,9.274158935546875,-5.9213385581970215,7.075277328491211,4.543970108032227
1731409977113964800,9.28396484375,-5.8734822273254395,7.025028228759766,4.474578380584717
1731409977123769600,9.29376953125,-5.79691219329834,6.945765972137451,4.42193603515625
1731409977133575200,9.3035751953125,-5.725127220153809,6.895516872406006,4.319045066833496
1731409977143381800,9.3133818359375,-5.710770130157471,6.828517436981201,4.2209391593933105
1731409977153187300,9.323187255859375,-5.720341682434082,6.773482799530029,4.172783374786377
1731409977162992000,9.3329921875,-5.701199054718018,6.723233222961426,4.163212299346924
1731409977172797700,9.342797607421875,-5.722734451293945,6.6729841232299805,4.179962158203125
1731409977182604300,9.352604248046875,-5.758626937866211,6.665805816650391,4.2281174659729
1731409977192409900,9.362409912109374,-5.775376319885254,6.658627033233643,4.256831645965576
1731409977202214700,9.372214599609375,-5.792126178741455,6.634698867797852,4.2592244148254395
1731409977212020200,9.382020263671874,-5.801697731018066,6.651448726654053,4.280759811401367
1731409977221826800,9.391826904296876,-5.8112688064575195,6.644270420074463,4.261617183685303
1731409977231632400,9.40163232421875,-5.875874996185303,6.708876609802246,4.323830604553223
1731409977241437200,9.411437255859376,-5.947659969329834,6.783053874969482,4.3549370765686035
1731409977251243000,9.421242919921875,-5.993123531341553,6.802196502685547,4.359723091125488
1731409977261049300,9.43104931640625,-5.950052738189697,6.806982040405273,4.309473514556885
1731409977270855000,9.44085498046875,-5.9285173416137695,6.828517436981201,4.261617183685303
1731409977280659700,9.45065966796875,-5.9213385581970215,6.857231616973877,4.225724697113037
1731409977290465500,9.460465576171876,-5.933302879333496,6.8859453201293945,4.1991047859191895
1731409977300271900,9.47027197265625,-5.938088417053223,6.883552551269531,4.203890323638916
1731409977310077400,9.480077392578124,-5.923731327056885,6.883552551269531,4.240081787109375
1731409977319882200,9.48988232421875,-5.8974103927612305,6.902695178985596,4.249652862548828
1731409977329688000,9.49968798828125,-5.871089458465576,6.912266254425049,4.240081787109375
1731409977339494400,9.509494384765626,-5.818447589874268,6.933801651000977,4.218546390533447
1731409977349300200,9.51930029296875,-5.753840923309326,6.9481587409973145,4.208974838256836
1731409977359105000,9.52910498046875,-5.624329566955566,6.924230575561523,4.1991047859191895
1731409977368910600,9.53891064453125,-5.68684196472168,6.850052833557129,4.189533233642578
1731409977378717000,9.548717041015625,-5.674878120422363,6.768697261810303,4.153641223907471
1731409977388522800,9.558522705078126,-5.5860443115234375,6.706483840942383,4.172783374786377
1731409977398327600,9.56832763671875,-5.629115104675293,6.629913330078125,4.177569389343262
1731409977408133000,9.578133056640626,-5.710770130157471,6.558128833770752,4.086641788482666
1731409977417939700,9.587939697265625,-5.698806285858154,6.5318074226379395,4.072285175323486
1731409977427745300,9.597745361328125,-5.657829284667969,6.622735023498535,4.144069671630859
1731409977437550000,9.607550048828125,-5.67966365814209,6.713662147521973,4.208974838256836
1731409977447355600,9.617355712890625,-5.820840358734131,6.74237585067749,4.223331928253174
1731409977457162200,9.627162353515626,-5.86630392074585,6.756732940673828,4.252045631408691
1731409977466967800,9.6369677734375,-5.887839317321777,6.818946361541748,4.297509670257568
1731409977476772600,9.646772705078124,-5.930910110473633,6.895516872406006,4.304687976837158
1731409977486578400,9.656578369140625,-5.973980903625488,6.940980434417725,4.273581027984619
1731409977496384800,9.666384765625,-5.938088417053223,6.972385883331299,4.235296249389648
1731409977506190300,9.6761904296875,-5.863911151885986,6.991528511047363,4.16799783706665
1731409977515995100,9.6859951171875,-5.789733409881592,6.993921279907227,4.127319812774658
1731409977525801000,9.695801025390624,-5.722734451293945,6.996314525604248,4.07467794418335
1731409977535607300,9.705607177734375,-5.674878120422363,7.005885601043701,4.0196428298950195
1731409977545412900,9.715412841796875,-5.677270889282227,7.0082783699035645,4.014857292175293
1731409977555217700,9.7252177734375,-5.653043270111084,7.025028228759766,4.0196428298950195
1731409977565023500,9.7350234375,-5.633901119232178,6.984350204467773,4.038785457611084
1731409977574829800,9.744829833984374,-5.61236572265625,6.952944278717041,4.072285175323486
1731409977584635400,9.754635498046875,-5.5860443115234375,6.9481587409973145,4.1057844161987305
1731409977594440200,9.764440185546874,-5.600401401519775,6.950551509857178,4.091427803039551
1731409977604246000,9.77424609375,-5.617151260375977,6.92183780670166,4.00528621673584
1731409977614052400,9.78405224609375,-5.595615863800049,6.890730857849121,3.9478583335876465
1731409977623858000,9.79385791015625,-5.523830890655518,6.847660064697266,3.9311084747314453
1731409977633662700,9.803662841796875,-5.504688262939453,6.847660064697266,3.969393730163574
1731409977643468500,9.813468505859374,-5.588437080383301,6.809374809265137,3.9478583335876465
1731409977653275000,9.82327490234375,-5.61236572265625,6.823731899261475,3.959822416305542
1731409977663080700,9.833080810546875,-5.665007591247559,6.900302410125732,4.000500202178955
1731409977672885500,9.842885498046876,-5.710770130157471,6.97477912902832,4.050749778747559
1731409977682691000,9.852691162109375,-5.674878120422363,7.020242691040039,4.084249019622803
1731409977692497400,9.862497314453124,-5.696413516998291,7.04417085647583,4.091427803039551
1731409977702303200,9.87230322265625,-5.68684196472168,7.034599304199219,4.072285175323486
1731409977712108000,9.88210791015625,-5.648257732391357,7.025028228759766,4.048357009887695
1731409977721913600,9.89191357421875,-5.650650501251221,7.029813766479492,4.050749778747559
1731409977731720200,9.90172021484375,-5.660222053527832,7.0322065353393555,4.048357009887695
1731409977741525800,9.91152587890625,-5.62672233581543,7.0322065353393555,4.041178226470947
1731409977751330600,9.92133056640625,-5.61236572265625,7.04417085647583,4.053142547607422
1731409977761136000,9.93113623046875,-5.590830326080322,7.017849922180176,4.036392688751221
1731409977770942700,9.940942626953126,-5.547759532928467,6.996314525604248,4.010071754455566
1731409977780748300,9.950748291015625,-5.4951171875,6.957729816436768,4.01246452331543
1731409977790553000,9.960552978515626,-5.423332691192627,6.9098734855651855,3.9861433506011963
1731409977800358700,9.970358642578125,-5.337191104888916,6.917052268981934,3.9885363578796387
1731409977810165200,9.980165283203124,-5.358726501464844,6.9481587409973145,3.998107433319092
1731409977819970800,9.989970703125,-5.4041900634765625,6.9481587409973145,3.9885363578796387
1731409977829775600,9.999775634765625,-5.464010715484619,6.912266254425049,4.000500202178955
1731409977839581400,10.00958154296875,-5.535795211791992,6.9098734855651855,4.017250061035156
1731409977849387800,10.0193876953125,-5.519045352935791,6.912266254425049,4.072285175323486
1731409977859193300,10.029193359375,-5.499902725219727,6.907480716705322,4.127319812774658
1731409977868998100,10.038998046875,-5.519045352935791,6.931408882141113,4.158426761627197
1731409977878804000,10.048803955078125,-5.523830890655518,6.960123062133789,4.1608195304870605
1731409977888610300,10.0586103515625,-5.5692949295043945,6.991528511047363,4.191926002502441
1731409977898415900,10.068415771484375,-5.600401401519775,7.036992073059082,4.252045631408691
1731409977908220700,10.078220703125,-5.624329566955566,7.072884559631348,4.299902439117432
1731409977918026500,10.088026611328125,-5.624329566955566,7.108777046203613,4.321437835693359
1731409977927832800,10.097832763671875,-5.61954402923584,7.103991508483887,4.240081787109375
1731409977937638400,10.107638427734376,-5.581258773803711,7.077670097351074,4.189533233642578
1731409977947443200,10.117443115234375,-5.552545070648193,7.135097980499268,4.256831645965576
1731409977957249000,10.1272490234375,-5.4951171875,7.111169815063477,4.29033088684082
1731409977967055400,10.137055419921875,-5.490331649780273,7.070491790771484,4.287938117980957
1731409977976861200,10.146861083984374,-5.4951171875,7.0393853187561035,4.316651821136475
1731409977986666000,10.156666015625,-5.499902725219727,7.0393853187561035,4.326223373413086
1731409977996471600,10.166471435546875,-5.547759532928467,7.029813766479492,4.299902439117432
1731409978006278000,10.17627783203125,-5.6099724769592285,6.993921279907227,4.275974273681641
1731409978016083700,10.186083740234375,-5.636293888092041,6.943373203277588,4.232903480529785
1731409978025888500,10.195888427734374,-5.600401401519775,6.907480716705322,4.213760852813721
1731409978035694000,10.205694091796875,-5.509474277496338,6.917052268981934,4.2209391593933105
1731409978045500700,10.215500732421875,-5.61954402923584,6.897909641265869,4.2592244148254395
1731409978055306200,10.22530615234375,-5.645864963531494,6.8859453201293945,4.2592244148254395
1731409978065111000,10.235111083984375,-5.576473236083984,6.878767013549805,4.264009952545166
1731409978074916600,10.24491650390625,-5.672185897827148,6.883552551269531,4.261617183685303
1731409978084723200,10.25472314453125,-5.777769565582275,6.854838848114014,4.179962158203125
1731409978094528800,10.26452880859375,-5.725127220153809,6.857231616973877,4.146462440490723
1731409978104333600,10.27433349609375,-5.621936798095703,6.931408882141113,4.203890323638916
1731409978114139100,10.28413916015625,-5.588437080383301,7.015456676483154,4.275974273681641
1731409978123945500,10.293945556640624,-5.648257732391357,7.046563625335693,4.256831645965576
1731409978133751300,10.303751220703125,-5.598008632659912,7.041778087615967,4.203890323638916
1731409978143556000,10.31355615234375,-5.5142598152160645,7.04417085647583,4.194318771362305
1731409978153361700,10.323361572265625,-5.528616905212402,7.0082783699035645,4.16799783706665
1731409978163168300,10.333168212890625,-5.5142598152160645,7.034599304199219,4.2281174659729
1731409978172973800,10.342973876953126,-5.528616905212402,7.089634418487549,4.266402721405029
1731409978182778600,10.352778564453125,-5.5860443115234375,7.1255269050598145,4.299902439117432
1731409978192584200,10.362584228515624,-5.645864963531494,7.1255269050598145,4.302295207977295
1731409978202390800,10.372390869140625,-5.674878120422363,7.089634418487549,4.295116424560547
1731409978212196400,10.3821962890625,-5.643472194671631,7.094419956207275,4.285545349121094
1731409978222001200,10.392001220703126,-5.61954402923584,7.05134916305542,4.273581027984619
1731409978231806700,10.401806640625,-5.583651542663574,6.998707294464111,4.235296249389648
1731409978241613300,10.41161328125,-5.602794170379639,7.003492832183838,4.208974838256836
1731409978251419000,10.4214189453125,-5.61954402923584,7.025028228759766,4.172783374786377
1731409978261223700,10.4312236328125,-5.645864963531494,7.022635459899902,4.141676902770996
1731409978271029200,10.441029296875,-5.701199054718018,6.993921279907227,4.117748737335205
1731409978280835800,10.4508359375,-5.705984592437744,6.955337047576904,4.098606109619141
1731409978290641400,10.460641357421874,-5.67966365814209,6.952944278717041,4.098606109619141
1731409978300446200,10.4704462890625,-5.614758491516113,6.940980434417725,4.079463481903076
1731409978310251800,10.480251708984374,-5.61236572265625,6.92183780670166,4.096213340759277
1731409978320058400,10.490058349609376,-5.689234733581543,6.869195461273193,4.038785457611084
1731409978329864000,10.499864013671875,-5.660222053527832,6.842874526977539,4.0196428298950195
1731409978339668700,10.509668701171876,-5.684449195861816,6.890730857849121,4.036392688751221
1731409978349474300,10.519474365234375,-5.667400360107422,6.902695178985596,4.01246452331543
1731409978359281000,10.529281005859374,-5.624329566955566,6.9098734855651855,3.9885363578796387
1731409978369086500,10.53908642578125,-5.643472194671631,6.897909641265869,3.9717864990234375
1731409978378891300,10.548891357421875,-5.665007591247559,6.914659023284912,3.974179267883301
1731409978388696800,10.55869677734375,-5.6916279792785645,6.938587665557861,3.9957146644592285
1731409978398503400,10.56850341796875,-5.717948913574219,6.93619441986084,3.9861433506011963
1731409978408309000,10.57830908203125,-5.732305526733398,6.938587665557861,3.9813578128814697
1731409978418113800,10.58811376953125,-5.7155561447143555,6.926623344421387,3.9789650440216064
1731409978427919400,10.59791943359375,-5.67966365814209,6.955337047576904,3.976572036743164
1731409978437726000,10.607725830078126,-5.650650501251221,6.98195743560791,3.9502511024475098
1731409978447531500,10.617531494140625,-5.602794170379639,6.993921279907227,3.9550366401672363
1731409978457336300,10.62733642578125,-5.5860443115234375,6.979564666748047,3.9502511024475098
1731409978467142000,10.637141845703125,-5.583651542663574,6.964908599853516,3.959822416305542
1731409978476948500,10.646948486328125,-5.574080467224121,6.955337047576904,4.01246452331543
1731409978486754000,10.656754150390626,-5.581258773803711,6.962515830993652,4.0196428298950195
1731409978496558800,10.666558837890625,-5.5932230949401855,6.957729816436768,4.010071754455566
1731409978506364400,10.676364501953126,-5.61236572265625,6.955337047576904,3.990929126739502
1731409978516171000,10.6861708984375,-5.605186939239502,6.938587665557861,4.002892971038818
1731409978525976600,10.6959765625,-5.643472194671631,6.926623344421387,3.9933218955993652
1731409978535781400,10.705781494140625,-5.701199054718018,6.912266254425049,3.967000722885132
1731409978545587000,10.7155869140625,-5.746662616729736,6.931408882141113,3.976572036743164
1731409978555393500,10.7253935546875,-5.777769565582275,6.957729816436768,3.998107433319092
1731409978565199000,10.73519921875,-5.820840358734131,6.991528511047363,4.01246452331543
1731409978575004000,10.74500390625,-5.844768524169922,7.010671138763428,4.010071754455566
1731409978584809500,10.7548095703125,-5.854339599609375,7.022635459899902,4.014857292175293
1731409978594616000,10.764615966796875,-5.80409049987793,7.027420997619629,4.010071754455566
1731409978604421600,10.774421630859376,-5.770590782165527,7.005885601043701,3.969393730163574
1731409978614226400,10.784226318359375,-5.722734451293945,7.001100063323975,3.9813578128814697
1731409978624032000,10.794031982421876,-5.669793128967285,6.998707294464111,3.969393730163574
1731409978633838600,10.803838623046875,-5.633901119232178,7.029813766479492,3.9263229370117188
1731409978643644200,10.81364404296875,-5.598008632659912,7.060920715332031,3.921537160873413
1731409978653449000,10.823448974609375,-5.5692949295043945,7.068099021911621,3.9167516231536865
1731409978663254800,10.8332548828125,-5.545366287231445,7.041778087615967,3.897608995437622
1731409978673061000,10.84306103515625,-5.519045352935791,7.022635459899902,3.8928234577178955
1731409978682866700,10.85286669921875,-5.449653625488281,6.972385883331299,3.8832521438598633
1731409978692671500,10.86267138671875,-5.416153907775879,6.957729816436768,3.880859136581421
1731409978702477000,10.87247705078125,-5.356333255767822,6.996314525604248,3.9023945331573486
1731409978712283600,10.88228369140625,-5.459224700927734,6.996314525604248,3.9095730781555176
1731409978722089200,10.892089111328126,-5.430510997772217,7.001100063323975,3.9406797885894775
1731409978731894000,10.90189404296875,-5.401797294616699,7.041778087615967,4.041178226470947
1731409978741699600,10.911699462890626,-5.531009674072266,7.05134916305542,4.065106391906738
1731409978751506200,10.921506103515625,-5.62672233581543,7.048956394195557,4.0196428298950195
1731409978761311700,10.931311767578125,-5.62672233581543,7.0872416496276855,4.067499160766602
1731409978771116500,10.941116455078125,-5.552545070648193,7.156633377075195,4.141676902770996
1731409978780922000,10.950922119140625,-5.499902725219727,7.180561542510986,4.201497554779053
1731409978790728700,10.960728759765624,-5.542973518371582,7.156633377075195,4.175176620483398
1731409978800534300,10.9705341796875,-5.507081508636475,7.10638427734375,4.134498596191406
1731409978810339000,10.980339111328124,-5.456831932067871,7.068099021911621,4.141676902770996
1731409978820144600,10.99014453125,-5.4520463943481445,7.0561347007751465,4.148855209350586
1731409978829951200,10.999951171875,-5.435296535491943,7.020242691040039,4.144069671630859
1731409978839756800,11.0097568359375,-5.392225742340088,7.022635459899902,4.146462440490723
1731409978849561600,11.0195615234375,-5.461617469787598,7.036992073059082,4.141676902770996
1731409978859367200,11.0293671875,-5.5692949295043945,7.0561347007751465,4.134498596191406
1731409978869173800,11.039173828125,-5.641079425811768,7.068099021911621,4.175176620483398
1731409978878979300,11.048979248046875,-5.684449195861816,7.070491790771484,4.182354927062988
1731409978888784100,11.0587841796875,-5.6916279792785645,7.068099021911621,4.175176620483398
1731409978898589700,11.068589599609375,-5.698806285858154,7.065706253051758,4.156033992767334
1731409978908396300,11.078396240234374,-5.698806285858154,7.05852746963501,4.124927043914795
1731409978918201900,11.088201904296875,-5.696413516998291,7.070491790771484,4.127319812774658
1731409978928006700,11.098006591796874,-5.696413516998291,7.075277328491211,4.141676902770996
1731409978937812500,11.1078125,-5.710770130157471,7.053741931915283,4.134498596191406
1731409978947618800,11.117618896484375,-5.682056427001953,7.029813766479492,4.110570430755615
1731409978957424400,11.12742431640625,-5.614758491516113,7.065706253051758,4.148855209350586
1731409978967229200,11.137229248046875,-5.55733060836792,7.0872416496276855,4.230510234832764
1731409978977034800,11.14703466796875,-5.633901119232178,7.022635459899902,4.230510234832764
1731409978986841300,11.15684130859375,-5.6554365158081055,6.943373203277588,4.153641223907471
1731409978996647000,11.16664697265625,-5.648257732391357,6.93619441986084,4.100998878479004
1731409979006451700,11.17645166015625,-5.67966365814209,6.964908599853516,4.096213340759277
1731409979016257500,11.186257568359375,-5.648257732391357,6.9891357421875,4.117748737335205
1731409979026064000,11.19606396484375,-5.67966365814209,6.962515830993652,4.089034557342529
1731409979035869400,11.205869384765625,-5.713163375854492,6.914659023284912,4.048357009887695
1731409979045674200,11.21567431640625,-5.703591823577881,6.893123626708984,4.089034557342529
1731409979055480000,11.22547998046875,-5.7155561447143555,6.895516872406006,4.124927043914795
1731409979065286400,11.235286376953125,-5.761019706726074,6.917052268981934,4.151247978210449
1731409979075092000,11.245092041015624,-5.820840358734131,6.926623344421387,4.141676902770996
1731409979084896800,11.254896728515625,-5.823233127593994,6.945765972137451,4.158426761627197
1731409979094702600,11.26470263671875,-5.777769565582275,6.98195743560791,4.1368913650512695
1731409979104509000,11.274509033203126,-5.784947872161865,7.010671138763428,4.139284133911133
1731409979114314500,11.284314453125,-5.770590782165527,7.020242691040039,4.117748737335205
1731409979124119300,11.294119384765626,-5.729912757873535,7.034599304199219,4.134498596191406
1731409979133925000,11.303925048828125,-5.713163375854492,7.04417085647583,4.163212299346924
1731409979143731500,11.3137314453125,-5.701199054718018,7.053741931915283,4.1368913650512695
1731409979153537000,11.323537109375,-5.669793128967285,7.015456676483154,4.0818562507629395
1731409979163341800,11.333341796875,-5.669793128967285,6.984350204467773,4.029214382171631
1731409979173147600,11.343147705078126,-5.653043270111084,6.969694137573242,3.969393730163574
1731409979182954000,11.3529541015625,-5.696413516998291,6.972385883331299,3.967000722885132
1731409979192759600,11.362759521484374,-5.756234169006348,7.005885601043701,3.967000722885132
1731409979202564400,11.372564453125,-5.777769565582275,7.001100063323975,3.9789650440216064
1731409979212370200,11.3823701171875,-5.758626937866211,6.993921279907227,3.9789650440216064
1731409979222176500,11.392176513671876,-5.737091541290283,7.010671138763428,3.959822416305542
1731409979231982000,11.401982177734375,-5.732305526733398,7.013063907623291,3.9502511024475098
1731409979241787000,11.411786865234374,-5.696413516998291,7.013063907623291,3.9502511024475098
1731409979251592700,11.4215927734375,-5.696413516998291,7.015456676483154,3.967000722885132
1731409979261399000,11.43139892578125,-5.578866004943848,7.022635459899902,3.9502511024475098
1731409979271204600,11.44120458984375,-5.5860443115234375,7.017849922180176,3.969393730163574
1731409979281009400,11.451009521484375,-5.605186939239502,6.945765972137451,3.904787540435791
1731409979290815200,11.460815185546876,-5.566901683807373,6.92901611328125,3.9335012435913086
1731409979300621600,11.47062158203125,-5.607579708099365,6.897909641265869,3.91914439201355
1731409979310427100,11.48042724609375,-5.669793128967285,6.890730857849121,3.9095730781555176
1731409979320232000,11.49023193359375,-5.701199054718018,6.878767013549805,3.88803768157959
1731409979330037800,11.500037841796875,-5.710770130157471,6.943373203277588,3.9335012435913086
1731409979339844000,11.509843994140626,-5.667400360107422,6.993921279907227,4.000500202178955
1731409979349650000,11.51964990234375,-5.6099724769592285,7.041778087615967,4.038785457611084
1731409979359454700,11.529454833984374,-5.650650501251221,7.015456676483154,4.022035598754883
1731409979369260300,11.53926025390625,-5.607579708099365,7.010671138763428,4.057928085327148
1731409979379066600,11.549066650390625,-5.636293888092041,7.0633134841918945,4.115355968475342
1731409979388872400,11.55887255859375,-5.780162334442139,7.025028228759766,4.031607151031494
1731409979398677200,11.56867724609375,-5.761019706726074,6.967301368713379,3.9502511024475098
1731409979408482800,11.57848291015625,-5.717948913574219,6.9481587409973145,3.928715705871582
1731409979418289400,11.588289306640625,-5.578866004943848,6.960123062133789,3.9574296474456787
1731409979428095000,11.598094970703125,-5.559723377227783,7.005885601043701,4.024428367614746
1731409979437899800,11.607899658203126,-5.559723377227783,7.001100063323975,4.007678985595703
1731409979447705300,11.617705322265625,-5.535795211791992,7.046563625335693,4.045963764190674
1731409979457512000,11.627511962890624,-5.504688262939453,7.053741931915283,4.079463481903076
1731409979467317500,11.6373173828125,-5.511867046356201,7.029813766479492,4.057928085327148
1731409979477122300,11.647122314453124,-5.516652584075928,7.027420997619629,4.045963764190674
1731409979486928000,11.656927978515625,-5.535795211791992,7.04417085647583,4.060320854187012
1731409979496734500,11.666734375,-5.509474277496338,7.046563625335693,4.091427803039551
1731409979506540000,11.6765400390625,-5.459224700927734,7.077670097351074,4.148855209350586
1731409979516344800,11.6863447265625,-5.401797294616699,7.094419956207275,4.1608195304870605
1731409979526150400,11.696150390625,-5.416153907775879,7.111169815063477,4.1057844161987305
1731409979535957000,11.70595703125,-5.413761138916016,7.101598739624023,4.084249019622803
1731409979545762600,11.715762451171875,-5.430510997772217,7.132705211639404,4.089034557342529
1731409979555567400,11.7255673828125,-5.435296535491943,7.1494550704956055,4.120141506195068
1731409979565373000,11.735373046875,-5.468796253204346,7.154240608215332,4.151247978210449
1731409979575179500,11.745179443359374,-5.48793888092041,7.202096939086914,4.218546390533447
1731409979584985000,11.754985107421875,-5.480760097503662,7.235596656799316,4.242474555969238
1731409979594790000,11.764789794921874,-5.430510997772217,7.235596656799316,4.252045631408691
1731409979604595700,11.774595703125,-5.313262462615967,7.2212395668029785,4.292723655700684
1731409979614402000,11.784402099609375,-5.387440204620361,7.159026145935059,4.297509670257568
1731409979624207600,11.79420751953125,-5.392225742340088,7.0872416496276855,4.2281174659729
1731409979634012400,11.804012451171875,-5.36351203918457,7.096812725067139,4.213760852813721
1731409979643818200,11.813818359375,-5.351547718048096,7.142276287078857,4.223331928253174
1731409979653624600,11.82362451171875,-5.325226783752441,7.159026145935059,4.232903480529785
1731409979663430400,11.833430419921875,-5.399404525756836,7.135097980499268,4.189533233642578
1731409979673235200,11.843235107421876,-5.437689304351807,7.1255269050598145,4.179962158203125
1731409979683040800,11.853040771484375,-5.413761138916016,7.065706253051758,4.148855209350586
1731409979692847000,11.86284716796875,-5.394618511199951,7.034599304199219,4.170390605926514
1731409979702653000,11.87265283203125,-5.435296535491943,7.0322065353393555,4.206283092498779
1731409979712457700,11.882457763671875,-5.456831932067871,7.017849922180176,4.179962158203125
1731409979722263300,11.89226318359375,-5.5142598152160645,7.027420997619629,4.182354927062988
1731409979732070000,11.90206982421875,-5.540580749511719,7.070491790771484,4.177569389343262
1731409979741875500,11.91187548828125,-5.5621161460876465,7.075277328491211,4.232903480529785
1731409979751680300,11.92168017578125,-5.552545070648193,7.05852746963501,4.2281174659729
1731409979761485800,11.93148583984375,-5.499902725219727,7.020242691040039,4.158426761627197
1731409979771292400,11.94129248046875,-5.497509956359863,7.070491790771484,4.187140464782715
1731409979781098000,11.951097900390625,-5.461617469787598,7.068099021911621,4.1608195304870605
1731409979790902800,11.96090283203125,-5.437689304351807,7.05134916305542,4.141676902770996
1731409979800708400,11.970708251953125,-5.442475318908691,7.029813766479492,4.100998878479004
1731409979810515000,11.980514892578125,-5.459224700927734,7.020242691040039,4.127319812774658
1731409979820320500,11.990320556640626,-5.490331649780273,7.036992073059082,4.191926002502441
1731409979830125300,12.000125244140625,-5.492724418640137,7.0633134841918945,4.201497554779053
1731409979839931100,12.00993115234375,-5.485546112060547,7.065706253051758,4.196712017059326
1731409979849737500,12.019737548828125,-5.56450891494751,7.068099021911621,4.156033992767334
1731409979859543000,12.02954296875,-5.56450891494751,7.156633377075195,4.247260093688965
1731409979869347800,12.039347900390625,-5.531009674072266,7.170990467071533,4.268795490264893
1731409979879153700,12.049153564453125,-5.531009674072266,7.16859769821167,4.278367042541504
1731409979888960000,12.0589599609375,-5.5381879806518555,7.1494550704956055,4.242474555969238
1731409979898765800,12.068765869140625,-5.497509956359863,7.151847839355469,4.247260093688965
1731409979908570400,12.0785703125,-5.464010715484619,7.142276287078857,4.244867324829102
1731409979918376200,12.088376220703125,-5.509474277496338,7.142276287078857,4.206283092498779
1731409979928182500,12.0981826171875,-5.547759532928467,7.130312442779541,4.172783374786377
1731409979937988400,12.10798828125,-5.526223659515381,7.111169815063477,4.120141506195068
1731409979947793200,12.117793212890625,-5.464010715484619,7.103991508483887,4.124927043914795
1731409979957598700,12.1275986328125,-5.468796253204346,7.103991508483887,4.153641223907471
1731409979967405300,12.1374052734375,-5.5381879806518555,7.041778087615967,4.151247978210449
1731409979977211000,12.1472109375,-5.504688262939453,7.003492832183838,4.172783374786377
1731409979987015700,12.157015625,-5.554937839508057,7.020242691040039,4.187140464782715
1731409979996821500,12.166821533203125,-5.722734451293945,6.960123062133789,4.067499160766602
1731409980006627800,12.1766279296875,-5.7394843101501465,6.905087947845459,4.010071754455566
1731409980016433400,12.186433349609375,-5.648257732391357,6.924230575561523,4.01246452331543
1731409980026238200,12.19623828125,-5.614758491516113,6.967301368713379,4.060320854187012
1731409980036044000,12.2060439453125,-5.5860443115234375,6.943373203277588,3.967000722885132
1731409980045850400,12.215850341796875,-5.547759532928467,6.914659023284912,3.935894250869751
1731409980055656000,12.225656005859374,-5.492724418640137,6.926623344421387,3.9071803092956543
1731409980065460700,12.235460693359375,-5.43290376663208,6.952944278717041,3.943072557449341
1731409980075266600,12.2452666015625,-5.385047435760498,6.979564666748047,3.998107433319092
1731409980085073000,12.255072998046876,-5.416153907775879,7.013063907623291,4.036392688751221
1731409980094878700,12.264878662109375,-5.507081508636475,7.046563625335693,4.048357009887695
1731409980104683500,12.27468359375,-5.540580749511719,7.068099021911621,4.07467794418335
1731409980114489000,12.284489013671875,-5.526223659515381,7.094419956207275,4.134498596191406
1731409980124295400,12.29429541015625,-5.516652584075928,7.111169815063477,4.16799783706665
1731409980134101200,12.304101318359375,-5.497509956359863,7.130312442779541,4.165605068206787
1731409980143906000,12.313906005859375,-5.533402442932129,7.170990467071533,4.1608195304870605
1731409980153711600,12.323711669921876,-5.552545070648193,7.199704170227051,4.163212299346924
1731409980163518200,12.333518310546875,-5.576473236083984,7.216454029083252,4.1368913650512695
1731409980173323800,12.34332373046875,-5.5692949295043945,7.194918632507324,4.110570430755615
1731409980183128600,12.353128662109375,-5.531009674072266,7.166204929351807,4.103391647338867
1731409980192934400,12.362934326171874,-5.471189022064209,7.159026145935059,4.0818562507629395
1731409980202740700,12.37274072265625,-5.411368370056152,7.161418914794922,4.117748737335205
1731409980212546300,12.38254638671875,-5.389832973480225,7.166204929351807,4.170390605926514
1731409980222351000,12.39235107421875,-5.485546112060547,7.118348121643066,4.100998878479004
1731409980232157000,12.402156982421875,-5.55733060836792,7.137490749359131,4.098606109619141
1731409980241963300,12.41196337890625,-5.540580749511719,7.103991508483887,4.103391647338867
1731409980251769000,12.42176904296875,-5.447260856628418,7.092027187347412,4.067499160766602
1731409980261574000,12.431573974609375,-5.411368370056152,7.05134916305542,4.0435709953308105
1731409980271379500,12.44137939453125,-5.459224700927734,7.025028228759766,4.01246452331543
1731409980281186000,12.45118603515625,-5.48793888092041,7.036992073059082,4.00528621673584
1731409980290991600,12.46099169921875,-5.533402442932129,7.060920715332031,3.998107433319092
1731409980300796400,12.47079638671875,-5.595615863800049,7.075277328491211,4.010071754455566
1731409980310602000,12.48060205078125,-5.624329566955566,7.092027187347412,4.024428367614746
1731409980320408600,12.49040869140625,-5.605186939239502,7.084848880767822,3.9885363578796387
1731409980330214100,12.500214111328125,-5.650650501251221,7.166204929351807,4.065106391906738
1731409980340019000,12.51001904296875,-5.636293888092041,7.16859769821167,4.069892406463623
1731409980349824800,12.51982470703125,-5.631507873535156,7.127919673919678,4.026821613311768
1731409980359631000,12.529631103515625,-5.598008632659912,7.094419956207275,3.974179267883301
1731409980369436700,12.539436767578126,-5.578866004943848,7.094419956207275,3.9550366401672363
1731409980379241500,12.549241455078125,-5.535795211791992,7.123134136199951,3.952643871307373
1731409980389047300,12.55904736328125,-5.533402442932129,7.1255269050598145,3.9574296474456787
1731409980398854000,12.56885400390625,-5.499902725219727,7.101598739624023,3.9574296474456787
1731409980408659500,12.578659423828125,-5.499902725219727,7.111169815063477,3.976572036743164
1731409980418464300,12.58846435546875,-5.492724418640137,7.130312442779541,3.9861433506011963
1731409980428269800,12.598269775390625,-5.507081508636475,7.108777046203613,3.9646079540252686
1731409980438076400,12.608076416015624,-5.4951171875,7.118348121643066,3.945465326309204
1731409980447882000,12.617882080078125,-5.528616905212402,7.099205493927002,3.952643871307373
1731409980457686800,12.627686767578124,-5.547759532928467,7.096812725067139,3.943072557449341
1731409980467492600,12.63749267578125,-5.540580749511719,7.096812725067139,3.9000017642974854
1731409980477299000,12.647298828125,-5.523830890655518,7.082456111907959,3.880859136581421
1731409980487104500,12.6571044921875,-5.490331649780273,7.089634418487549,3.880859136581421
1731409980496909600,12.66690966796875,-5.499902725219727,7.118348121643066,3.8928234577178955
1731409980506715100,12.676715087890624,-5.519045352935791,7.11356258392334,3.9000017642974854
1731409980516521500,12.686521484375,-5.528616905212402,7.092027187347412,3.897608995437622
1731409980526327300,12.696327392578125,-5.478367328643799,7.101598739624023,3.9167516231536865
1731409980536132000,12.706132080078126,-5.447260856628418,7.142276287078857,3.928715705871582
1731409980545937700,12.715937744140625,-5.48793888092041,7.178168773651123,3.9574296474456787
1731409980555744300,12.725744140625,-5.605186939239502,7.170990467071533,3.9263229370117188
1731409980565549800,12.7355498046875,-5.540580749511719,7.156633377075195,3.952643871307373
1731409980575354600,12.745354736328125,-5.485546112060547,7.192525863647461,4.050749778747559
1731409980585160400,12.755160400390626,-5.62672233581543,7.161418914794922,4.01246452331543
1731409980594966800,12.764966796875,-5.631507873535156,7.127919673919678,3.9646079540252686
1731409980604772400,12.7747724609375,-5.5621161460876465,7.139883518218994,3.9861433506011963
1731409980614577200,12.7845771484375,-5.456831932067871,7.214061260223389,4.045963764190674
1731409980624383000,12.794383056640624,-5.464010715484619,7.228417873382568,4.017250061035156
1731409980634189300,12.804189208984376,-5.48793888092041,7.194918632507324,3.943072557449341
1731409980643995100,12.8139951171875,-5.401797294616699,7.185347080230713,3.9382870197296143
