time,seconds_elapsed,z,y,x
1733141827421792500,0.13779248046875,1.4891014099121094,-1.0956130027770996,-0.8118351697921753
1733141827431832300,0.147832275390625,1.072758674621582,-0.9947526454925537,-0.6238937973976135
1733141827441894000,0.157893798828125,0.6349668502807617,-0.9260153770446777,-0.5258511304855347
1733141827451975200,0.16797509765625,0.10053253173828125,-1.0379219055175781,-0.5738623738288879
1733141827462074000,0.17807421875,-0.37335205078125,-1.199280023574829,-0.6856510043144226
1733141827472186600,0.1881865234375,-0.695530891418457,-1.1387135982513428,-0.8014569282531738
1733141827482310100,0.19831005859375,-1.1584501266479492,-0.9557962417602539,-0.8118746280670166
1733141827492437000,0.20843701171875,-1.5202293395996094,-0.8098816871643066,-0.9321824312210083
1733141827502543400,0.21854345703125,-1.5959281921386719,-0.6592020988464355,-0.8755009174346924
1733141827512584200,0.228584228515625,-1.397568702697754,-0.63669753074646,-0.7777904868125916
1733141827522629600,0.238629638671875,-1.0225410461425781,-0.642136812210083,-0.825853168964386
1733141827532667600,0.248667724609375,-0.7520675659179688,-0.7002267837524414,-1.0359339714050293
1733141827542710500,0.25871044921875,-0.3537588119506836,-0.6528828144073486,-1.1589635610580444
1733141827552751000,0.268751220703125,-0.23731708526611328,-0.46235203742980957,-0.8658847808837891
1733141827562796300,0.27879638671875,-0.2110748291015625,-0.09506511688232422,-0.09633809328079224
1733141827572834600,0.28883447265625,-0.046173095703125,0.35915517807006836,0.697998046875
1733141827582877700,0.298877685546875,0.21738910675048828,0.6206045150756836,1.225797176361084
1733141827592917800,0.308917724609375,0.4312734603881836,0.6675114631652832,1.5756199359893799
1733141827602962700,0.318962646484375,0.5063648223876953,0.5207152366638184,1.3857760429382324
1733141827613012000,0.329011962890625,0.2722301483154297,0.35338926315307617,0.7488476037979126
1733141827623065600,0.339065673828125,-0.2579183578491211,0.27524662017822266,-0.06542220711708069
1733141827633122300,0.349122314453125,-0.9162120819091797,0.4274883270263672,-0.580162525177002
1733141827643181800,0.359181884765625,-1.818911075592041,0.7115192413330078,-0.42712095379829407
1733141827653243400,0.369243408203125,-2.6202340126037598,0.9548816680908203,0.3172309696674347
1733141827663305700,0.3793056640625,-3.159667491912842,1.03474760055542,0.9847834706306458
1733141827673368000,0.3893681640625,-3.1119699478149414,1.1920976638793945,1.426744818687439
1733141827683413200,0.399413330078125,4.337867736816406,0.6721673011779785,7.652439594268799
1733141827693454000,0.4094541015625,3.302739143371582,0.46305036544799805,7.411715030670166
1733141827703495200,0.4194951171875,-1.665306568145752,1.953995704650879,2.059483528137207
1733141827713536300,0.429536376953125,-3.0898051261901855,2.645822525024414,0.16212201118469238
1733141827723577300,0.439577392578125,-2.675940990447998,1.4064626693725586,-0.60624098777771
1733141827733618400,0.449618408203125,-1.9211182594299316,1.0083885192871094,-1.619673252105713
1733141827743659800,0.45965966796875,-1.7493939399719238,0.10236835479736328,-1.2286489009857178
1733141827753701400,0.469701416015625,-1.7786016464233398,-0.1965780258178711,-0.6600914001464844
1733141827763743000,0.479742919921875,-1.1505250930786133,-0.18519973754882812,-0.23169517517089844
1733141827773784800,0.489784912109375,-0.8362979888916016,-0.11186456680297852,0.05859559774398804
1733141827783826700,0.49982666015625,-0.7260990142822266,0.22466087341308594,0.22220665216445923
1733141827793868500,0.50986865234375,-0.3154306411743164,0.5958476066589355,-0.15139687061309814
1733141827803910700,0.51991064453125,0.15690040588378906,0.6103787422180176,-1.0371462106704712
1733141827813952800,0.529952880859375,0.2385416030883789,0.25167274475097656,-1.4222979545593262
1733141827823995100,0.5399951171875,-1.0903029441833496,-0.18713665008544922,-1.452282190322876
1733141827834037200,0.550037353515625,-1.6871294975280762,-0.1834092140197754,-1.5466387271881104
1733141827844079600,0.56007958984375,-1.171915054321289,0.10057735443115234,-2.502774238586426
1733141827854121700,0.570121826171875,-1.8449406623840332,0.2583003044128418,-1.7849467992782593
1733141827864163600,0.58016357421875,-0.8985843658447266,0.13463449478149414,-2.254305839538574
1733141827874205400,0.590205322265625,0.4360637664794922,-0.2310190200805664,-2.002606153488159
1733141827884246800,0.600246826171875,1.237870216369629,-0.5184979438781738,0.2519257068634033
1733141827894288100,0.6102880859375,2.2548084259033203,-0.14052772521972656,3.5919179916381836
1733141827904329500,0.62032958984375,3.3973512649536133,0.53961181640625,5.692129611968994
1733141827914371000,0.63037109375,3.187870979309082,0.9976129531860352,5.225290298461914
1733141827924412700,0.64041259765625,2.5095272064208984,1.0081777572631836,2.0781736373901367
1733141827934454300,0.650454345703125,0.7465019226074219,0.5741338729858398,-0.7867858409881592
1733141827944469800,0.6604697265625,0.9671726226806641,0.23958396911621094,-2.401008129119873
1733141827954469400,0.670469482421875,3.02639102935791,-0.5151419639587402,-3.8975143432617188
1733141827964468700,0.68046875,-0.1918182373046875,-0.3289313316345215,-2.0175554752349854
1733141827974469600,0.6904697265625,-1.3709778785705566,-0.4049563407897949,-1.8487935066223145
1733141827984473300,0.700473388671875,-0.9647088050842285,-0.30642175674438477,-1.4544363021850586
1733141827994481400,0.7104814453125,-0.06434440612792969,0.291867733001709,-0.5598056316375732
1733141828004495000,0.7204951171875,0.9656047821044922,0.7084918022155762,1.1156686544418335
1733141828014515000,0.730514892578125,-0.4663372039794922,0.8528995513916016,0.7244224548339844
1733141828024546800,0.740546875,-1.8324122428894043,0.7707643508911133,0.28425920009613037
1733141828034588200,0.750588134765625,-1.9699301719665527,0.8524575233459473,-0.23183202743530273
1733141828044637400,0.760637451171875,-1.4550881385803223,1.2596478462219238,-1.0112345218658447
1733141828054692600,0.770692626953125,-0.6278157234191895,1.0383048057556152,-0.9685839414596558
1733141828064753000,0.7807529296875,-0.22234153747558594,0.15878534317016602,-0.248055100440979
1733141828074817500,0.790817626953125,0.023376941680908203,-0.6956357955932617,0.26334190368652344
1733141828084885000,0.800885009765625,1.134047508239746,-0.8130249977111816,-0.10283279418945312
1733141828094954800,0.810954833984375,2.38563871383667,-0.5327548980712891,-1.2393343448638916
1733141828105029600,0.821029541015625,3.4415364265441895,-0.31160497665405273,-0.45437395572662354
1733141828115085600,0.83108544921875,2.886880874633789,0.12189006805419922,-0.5616323947906494
1733141828125141500,0.8411416015625,1.4378042221069336,-0.3735470771789551,-0.9675132036209106
1733141828135198200,0.8511982421875,0.5780596733093262,-0.10063314437866211,-2.6696062088012695
1733141828145210400,0.86121044921875,3.146528720855713,-0.6762261390686035,2.0200698375701904
1733141828155229000,0.87122900390625,0.8413534164428711,-1.9820947647094727,2.455054759979248
1733141828165254000,0.88125390625,-0.8525638580322266,-2.061577320098877,2.2442495822906494
1733141828175285200,0.89128515625,-1.3602609634399414,-2.506568431854248,1.023964762687683
1733141828185322200,0.901322265625,-0.8715767860412598,-1.2526402473449707,-1.9023410081863403
1733141828195362000,0.911362060546875,0.31656837463378906,0.3376765251159668,-3.846585273742676
1733141828205404200,0.921404052734375,0.9816527366638184,0.18513917922973633,-2.723708152770996
1733141828215448600,0.931448486328125,0.12381982803344727,0.5882210731506348,-1.585782766342163
1733141828225495300,0.941495361328125,-2.8676633834838867,1.3976235389709473,-0.6149321794509888
1733141828235543600,0.95154345703125,-3.801508665084839,0.5619621276855469,0.8175026178359985
1733141828245593000,0.961593017578125,-4.077342510223389,0.36509132385253906,1.3316594362258911
1733141828255644000,0.971643798828125,-5.377030372619629,1.2311573028564453,0.44264161586761475
1733141828265700000,0.9817001953125,-5.635241508483887,1.0095109939575195,0.14057588577270508
1733141828275752700,0.991752685546875,-4.0036821365356445,-0.2183237075805664,0.125496506690979
1733141828285809700,1.0018095703125,-1.8256173133850098,-0.9428310394287109,-0.5355901122093201
1733141828295836200,1.011836181640625,-0.2795090675354004,-1.5272455215454102,-0.7206053137779236
1733141828305867800,1.02186767578125,1.1368451118469238,-1.340139389038086,-0.1544632911682129
1733141828315900400,1.031900390625,1.3578243255615234,-1.4551787376403809,0.69911789894104
1733141828325939000,1.04193896484375,1.123396873474121,-2.04402494430542,1.4512852430343628
1733141828335978500,1.051978515625,0.8974933624267578,-2.5190601348876953,2.4995269775390625
1733141828346023700,1.062023681640625,0.1572265625,-3.03403902053833,2.8606441020965576
1733141828356070000,1.07206982421875,-0.4898667335510254,-3.3567450046539307,2.7411162853240967
1733141828366121200,1.082121337890625,-0.5453596115112305,-3.5904486179351807,2.527676820755005
1733141828376169700,1.092169677734375,-0.8676204681396484,-3.7461764812469482,1.608314037322998
1733141828386222800,1.102222900390625,-0.16991376876831055,-3.290252923965454,2.115013837814331
1733141828396253000,1.1122529296875,0.32995080947875977,-3.020941734313965,1.8807258605957031
1733141828406288100,1.1222880859375,-0.5121273994445801,-2.21433162689209,0.5926434993743896
1733141828416328400,1.132328369140625,-1.0040373802185059,-0.061264991760253906,-0.14969909191131592
1733141828426374400,1.14237451171875,-1.4741816520690918,1.1430339813232422,-0.5225614309310913
1733141828436424700,1.1524248046875,-1.4381628036499023,-0.38136863708496094,0.3236877918243408
1733141828446479600,1.162479736328125,-1.4057612419128418,-0.769472599029541,1.583909511566162
1733141828456503600,1.172503662109375,-2.030395030975342,-0.21143007278442383,2.077850818634033
1733141828466532900,1.182532958984375,-1.7165212631225586,-0.32846593856811523,2.085097312927246
1733141828476568000,1.192568115234375,-2.294691562652588,0.35199642181396484,1.7626953125
1733141828486609200,1.202609130859375,-1.831343650817871,0.9664974212646484,0.959079384803772
1733141828496655600,1.212655517578125,-0.8656816482543945,1.0238022804260254,0.28241682052612305
1733141828506707500,1.22270751953125,-0.0937352180480957,0.5876178741455078,-0.47152435779571533
1733141828516763600,1.232763671875,1.1613707542419434,1.5188102722167969,-3.3437600135803223
1733141828526823700,1.24282373046875,1.6302452087402344,2.633335590362549,-4.427944660186768
1733141828536886800,1.25288671875,1.6202168464660645,4.043117046356201,-3.9730238914489746
1733141828546951700,1.26295166015625,1.5040340423583984,4.686095714569092,-1.9489949941635132
1733141828557017600,1.273017578125,1.5644311904907227,4.232682704925537,0.29615771770477295
1733141828567082200,1.283082275390625,2.147001266479492,2.468900680541992,0.4782264232635498
1733141828577123800,1.293123779296875,1.733968734741211,0.049233436584472656,-1.1490658521652222
1733141828587165400,1.30316552734375,1.9958877563476562,0.09195995330810547,-2.6922144889831543
1733141828597207300,1.313207275390625,2.3023366928100586,0.877385139465332,-3.32180118560791
1733141828607249000,1.323248779296875,2.8997344970703125,0.8643465042114258,-2.280359983444214
1733141828617290500,1.33329052734375,2.6005330085754395,0.9808011054992676,-0.727757453918457
1733141828627211800,1.343211669921875,2.075718879699707,0.9953289031982422,1.1254658699035645
1733141828637142800,1.353142822265625,2.7085862159729004,1.4592809677124023,1.118772029876709
1733141828647087400,1.36308740234375,3.71285343170166,2.1190271377563477,0.006689310073852539
1733141828657048800,1.373048828125,4.392434120178223,2.511624336242676,-1.1407753229141235
1733141828667030000,1.383030029296875,4.738793849945068,2.62752103805542,-1.6104711294174194
1733141828677032200,1.3930322265625,4.921223163604736,2.6953444480895996,-1.6747138500213623
1733141828687056400,1.403056396484375,4.954420566558838,2.37553071975708,-1.3265690803527832
1733141828697102000,1.41310205078125,5.0395965576171875,1.6354584693908691,-0.8688657283782959
1733141828707168800,1.423168701171875,5.454609394073486,0.6455655097961426,-0.7290375232696533
1733141828717254100,1.433254150390625,5.733835220336914,-0.14505863189697266,-1.146549940109253
1733141828727356000,1.44335595703125,5.461449146270752,-0.2633028030395508,-1.6702609062194824
1733141828737470700,1.453470703125,4.579165458679199,-0.41345691680908203,-1.9532463550567627
1733141828747595800,1.463595703125,3.3012313842773438,-0.8080816268920898,-2.164219617843628
1733141828757726700,1.473726806640625,1.8371243476867676,-1.2018990516662598,-2.1697511672973633
1733141828767860200,1.483860107421875,0.852266788482666,-1.8656435012817383,-2.2424848079681396
1733141828777958000,1.4939580078125,0.9057650566101074,-2.698446750640869,-2.2743301391601562
1733141828787999500,1.50399951171875,1.8455724716186523,-3.334974765777588,-2.3900649547576904
1733141828798041000,1.514041015625,2.6209776401519775,-4.041438579559326,-1.4426944255828857
1733141828808082700,1.524082763671875,3.1158602237701416,-4.192473888397217,-0.11789083480834961
1733141828818124500,1.53412451171875,3.228816270828247,-4.370600700378418,1.1077804565429688
1733141828828166100,1.544166259765625,3.0964882373809814,-4.784093379974365,2.083188056945801
1733141828838207700,1.554207763671875,2.71844744682312,-5.153685092926025,2.3091564178466797
1733141828848249600,1.56424951171875,2.0402822494506836,-5.3936638832092285,1.8540778160095215
1733141828858291200,1.574291259765625,1.0367437601089478,-5.81711483001709,1.0401225090026855
1733141828868332800,1.584332763671875,-0.12841230630874634,-5.597801208496094,-0.2447376251220703
1733141828878374400,1.59437451171875,-1.0946033000946045,-5.402035713195801,-1.3293349742889404
1733141828888416300,1.604416259765625,-2.345017910003662,-5.433073043823242,-1.7319897413253784
1733141828898457900,1.614457763671875,-3.901202917098999,-5.73261833190918,-1.0991978645324707
1733141828908499500,1.62449951171875,-4.647670745849609,-5.992575645446777,-0.48343515396118164
1733141828918541000,1.634541015625,-4.106722354888916,-5.997612953186035,-0.1335151195526123
1733141828928583000,1.6445830078125,-2.4325995445251465,-6.070742607116699,0.8008317947387695
1733141828938624500,1.65462451171875,-0.4973161220550537,-5.834284782409668,1.6972072124481201
1733141828948666400,1.664666259765625,0.6200666427612305,-5.1426310539245605,1.5711290836334229
1733141828958708000,1.6747080078125,0.5089049339294434,-4.008855819702148,-0.003575563430786133
1733141828968749600,1.68474951171875,-1.0432147979736328,-2.933345317840576,-2.3382186889648438
1733141828978791400,1.69479150390625,-3.193540334701538,-2.8830127716064453,-3.97706937789917
1733141828988833300,1.704833251953125,-5.368380546569824,-2.673661231994629,-4.646251678466797
1733141828998875100,1.714875244140625,-6.99941873550415,-1.9171433448791504,-4.335292339324951
1733141829008916700,1.724916748046875,-8.052681922912598,-0.7567133903503418,-3.706812620162964
1733141829018958600,1.73495849609375,-9.473982810974121,0.45960521697998047,-2.5440845489501953
1733141829029000200,1.745000244140625,-11.631670951843262,1.066533088684082,-1.6628212928771973
1733141829039041800,1.755041748046875,-12.908275604248047,1.5468616485595703,-3.0306873321533203
1733141829049083400,1.76508349609375,-13.023138046264648,2.143077850341797,-4.172980308532715
1733141829059125200,1.775125244140625,-12.34074878692627,1.87310791015625,-4.140443325042725
1733141829069166800,1.785166748046875,-10.485612869262695,1.1949434280395508,-2.914813995361328
1733141829079208400,1.79520849609375,-7.728028297424316,0.47635555267333984,-1.3618007898330688
1733141829089250000,1.80525,-5.315516471862793,0.0990438461303711,-0.0012345314025878906
1733141829099292000,1.8152919921875,-3.639061450958252,-0.1317768096923828,0.771986722946167
1733141829109333500,1.82533349609375,-2.5550899505615234,-0.35051727294921875,0.9562301635742188
1733141829119375000,1.835375,-1.401592493057251,-0.5490541458129883,0.8002996444702148
1733141829129416700,1.845416748046875,-0.32094693183898926,-0.6387786865234375,0.731787919998169
1733141829139339800,1.85533984375,0.4895036220550537,-0.6043882369995117,0.742645263671875
1733141829149272000,1.86527197265625,1.465436577796936,-0.6575803756713867,1.0497374534606934
1733141829159218000,1.875218017578125,2.427964925765991,-0.6075296401977539,1.7817561626434326
1733141829169180400,1.885180419921875,2.774805784225464,-0.2088918685913086,2.2804388999938965
1733141829179162600,1.89516259765625,2.7466659545898438,0.37582969665527344,2.3842215538024902
1733141829189165300,1.905165283203125,3.39625883102417,0.7440195083618164,2.1785075664520264
1733141829199189800,1.915189697265625,4.121602535247803,0.802556037902832,2.1690683364868164
1733141829209235700,1.925235595703125,5.185029029846191,0.5626029968261719,2.207326889038086
1733141829219302100,1.93530224609375,6.492626190185547,0.15534687042236328,2.085447072982788
1733141829229387000,1.945386962890625,7.450850009918213,-0.021561622619628906,1.956239938735962
1733141829239483100,1.955483154296875,7.454313278198242,-0.060593605041503906,2.00876522064209
1733141829249592800,1.9655927734375,7.244772911071777,-0.07500171661376953,1.9907476902008057
1733141829259712800,1.975712646484375,8.070393562316895,-0.33800315856933594,1.6937644481658936
1733141829269839400,1.98583935546875,10.159597396850586,-0.72723388671875,1.1127517223358154
1733141829279969300,1.99596923828125,12.568693161010742,-1.2379398345947266,0.3574986457824707
1733141829290084000,2.006083984375,14.321218490600586,-1.9090700149536133,0.1478865146636963
1733141829300126000,2.0161259765625,14.645807266235352,-2.4675893783569336,0.6823651790618896
1733141829310167300,2.026167236328125,13.8787841796875,-2.843003749847412,1.1598718166351318
1733141829320209000,2.036208984375,12.804210662841797,-3.202455520629883,1.4809575080871582
1733141829330250500,2.04625048828125,11.571647644042969,-3.5253853797912598,1.4640705585479736
1733141829340292000,2.0562919921875,10.574098587036133,-3.967456340789795,1.3343758583068848
1733141829350333700,2.066333740234375,9.8987455368042,-4.22420597076416,1.0802662372589111
1733141829360375300,2.076375244140625,8.77910041809082,-4.736021041870117,1.4867920875549316
1733141829370417000,2.0864169921875,7.659214019775391,-5.375290870666504,2.1201155185699463
1733141829380458200,2.096458251953125,6.462454795837402,-5.646266937255859,2.413084030151367
1733141829390499800,2.106499755859375,5.212786674499512,-6.362628936767578,2.886955499649048
1733141829400541700,2.116541748046875,3.273850679397583,-6.604018211364746,3.1865451335906982
1733141829410583300,2.126583251953125,-1.3040986061096191,-6.224736213684082,3.443007469177246
1733141829420625200,2.136625244140625,-10.587156295776367,-4.7227020263671875,3.0174126625061035
1733141829430666800,2.146666748046875,-52.901458740234375,-5.2983856201171875,6.52194881439209
1733141829440708600,2.15670849609375,-93.96847534179688,1.0809941291809082,2.910538911819458
1733141829450750200,2.166750244140625,-6.6704182624816895,-0.5136499404907227,-4.23060941696167
1733141829460792000,2.1767919921875,2.714555263519287,-6.215471267700195,-0.7912702560424805
1733141829470834000,2.186833984375,4.991610527038574,-2.6194911003112793,-2.201950788497925
1733141829480875800,2.196875732421875,4.561731815338135,-0.3455514907836914,-2.1576130390167236
1733141829490917600,2.206917724609375,3.629075288772583,0.4254136085510254,-1.0096724033355713
1733141829500959500,2.21695947265625,2.651611804962158,1.3261775970458984,-0.5639908313751221
1733141829511001000,2.2270009765625,0.44661426544189453,1.6194138526916504,-0.3886542320251465
1733141829521043000,2.23704296875,-2.3108091354370117,1.5062756538391113,-0.4195103645324707
1733141829531084800,2.247084716796875,-4.548644542694092,1.0006332397460938,-0.5417351722717285
1733141829541126700,2.257126708984375,-6.340224266052246,0.5489044189453125,-0.6541304588317871
1733141829551168500,2.26716845703125,-7.406651496887207,-0.2289719581604004,-0.4240999221801758
1733141829561210400,2.27721044921875,-7.3557209968566895,-0.8986072540283203,0.0009262561798095703
1733141829571251700,2.287251708984375,-6.7768025398254395,-1.261812686920166,0.2744021415710449
1733141829581293000,2.29729296875,-6.129504203796387,-1.416844367980957,0.47130584716796875
1733141829591334700,2.307334716796875,-5.781795501708984,-1.410752773284912,0.6530067920684814
1733141829601376000,2.3173759765625,-5.38380241394043,-1.1628789901733398,0.3187882900238037
1733141829611417600,2.32741748046875,-4.602101802825928,-0.9115462303161621,0.17387819290161133
1733141829621459000,2.337458984375,-3.3257126808166504,-0.6063346862792969,0.1562509536743164
1733141829631500500,2.34750048828125,-1.4641122817993164,-0.25687313079833984,-0.05732846260070801
1733141829641542000,2.3575419921875,0.5115628242492676,-0.09040069580078125,-0.2506825923919678
1733141829651583500,2.36758349609375,2.224560499191284,-0.3823356628417969,0.18651556968688965
1733141829661625000,2.377625,4.803520679473877,-0.6894721984863281,1.0417678356170654
1733141829671667000,2.3876669921875,8.102178573608398,-0.7910165786743164,2.027099370956421
1733141829681708800,2.397708740234375,11.220593452453613,-0.9451971054077148,3.239488363265991
1733141829691750400,2.40775048828125,14.433080673217773,-1.0682892799377441,3.7524218559265137
1733141829701792500,2.41779248046875,17.430477142333984,-1.2415189743041992,3.317197561264038
1733141829711834400,2.42783447265625,18.892623901367188,-1.2227210998535156,2.113553047180176
1733141829721876200,2.437876220703125,18.765832901000977,-1.046778678894043,1.4089629650115967
1733141829731918000,2.44791796875,17.7694149017334,-1.2945342063903809,1.251610279083252
1733141829741960000,2.4579599609375,16.888647079467773,-1.750885009765625,1.0509803295135498
1733141829751881700,2.4678818359375,16.0841064453125,-2.262568473815918,1.2502644062042236
1733141829761813000,2.47781298828125,15.161378860473633,-3.1092662811279297,2.0208239555358887
1733141829771758000,2.487758056640625,13.645365715026855,-3.687445640563965,2.6131646633148193
1733141829781719800,2.4977197265625,11.063182830810547,-3.9933953285217285,2.3403189182281494
1733141829791701200,2.507701171875,7.652336120605469,-4.267825126647949,1.5962719917297363
1733141829801703700,2.51770361328125,2.8255231380462646,-4.470398902893066,0.9691212177276611
1733141829811728000,2.527727783203125,-6.626875400543213,-4.572333812713623,1.2826237678527832
1733141829821773800,2.53777392578125,-56.89470291137695,-4.118019104003906,5.779921531677246
1733141829831840500,2.547840576171875,-90.43732452392578,1.370880126953125,4.257399082183838
1733141829841926000,2.55792578125,0.2220916748046875,-4.844444274902344,-0.9804086685180664
1733141829852022800,2.568022705078125,5.3083672523498535,-7.598839282989502,1.9904944896697998
1733141829862133500,2.578133544921875,3.914062738418579,-2.510929584503174,-0.8826501369476318
1733141829872254500,2.58825439453125,0.37619972229003906,-0.762420654296875,-1.2818427085876465
1733141829882382000,2.598382080078125,-2.2501649856567383,0.7319583892822266,-1.0884549617767334
1733141829892509700,2.608509765625,-4.583105087280273,1.4655365943908691,-0.7307102680206299
1733141829902627600,2.618627685546875,-6.272483825683594,1.8346490859985352,-0.7504091262817383
1733141829912548900,2.628548828125,-7.1609787940979,1.7599878311157227,-0.20047545433044434
1733141829922479900,2.63847998046875,-7.502269744873047,1.2991480827331543,0.716529369354248
1733141829932419600,2.648419677734375,-7.208282947540283,0.5118393898010254,1.0697128772735596
1733141829942376700,2.658376708984375,-5.855232238769531,-0.5222640037536621,0.7425398826599121
1733141829952349200,2.66834912109375,-3.772197723388672,-1.3233885765075684,0.7712574005126953
1733141829962343700,2.67834375,-1.4206137657165527,-1.7625412940979004,1.1800098419189453
1733141829972356900,2.68835693359375,0.7438979148864746,-1.7322626113891602,1.3771438598632812
1733141829982393600,2.6983935546875,1.9774134159088135,-1.4010682106018066,1.3591992855072021
1733141829992448500,2.708448486328125,1.9699163436889648,-0.7083950042724609,0.7797179222106934
1733141830002525000,2.71852490234375,1.5383656024932861,0.11592960357666016,0.1577925682067871
1733141830012616000,2.728615966796875,1.6724114418029785,0.5141582489013672,-0.14235377311706543
1733141830022723800,2.738723876953125,4.311069965362549,0.00751495361328125,-0.19076991081237793
1733141830032845300,2.74884521484375,7.742187976837158,-0.6610651016235352,0.31261706352233887
1733141830042976500,2.7589765625,10.845328330993652,-1.088651180267334,0.9652104377746582
1733141830053113300,2.76911328125,13.30276107788086,-1.2690753936767578,1.3941314220428467
1733141830063252000,2.779251953125,14.612316131591797,-1.264967441558838,1.4705631732940674
1733141830073335800,2.789335693359375,14.383478164672852,-1.1699976921081543,1.265162467956543
1733141830083378200,2.799378173828125,14.329878807067871,-1.212641716003418,0.9153375625610352
1733141830093419300,2.809419189453125,14.787168502807617,-1.453226089477539,0.7571609020233154
1733141830103460000,2.819460205078125,16.014760971069336,-2.0938315391540527,1.2785422801971436
1733141830113501200,2.829501220703125,17.72798728942871,-2.9358506202697754,2.003810167312622
1733141830123542300,2.839542236328125,17.62591552734375,-3.6477413177490234,2.6808674335479736
1733141830133583600,2.84958349609375,15.962069511413574,-4.172160625457764,3.02463698387146
1733141830143625000,2.859625,13.613031387329102,-4.730380058288574,3.0729315280914307
1733141830153666600,2.86966650390625,10.94688892364502,-4.820457935333252,3.8746464252471924
1733141830163708400,2.87970849609375,7.331663608551025,-4.431196689605713,4.196457386016846
1733141830173750300,2.889750244140625,-2.5070533752441406,-3.9079337120056152,4.001407146453857
1733141830183792000,2.899792236328125,-100.53337097167969,-1.1528668403625488,6.073032855987549
1733141830193834200,2.909834228515625,-65.2962646484375,2.348869800567627,-0.23549246788024902
1733141830203760400,2.919760498046875,7.472410202026367,-8.019783020019531,-3.803679943084717
1733141830213696000,2.929696044921875,11.336273193359375,-7.927177429199219,0.8181149959564209
1733141830223645000,2.93964501953125,10.347002983093262,-1.473358154296875,-0.2963423728942871
1733141830233610200,2.9496103515625,7.513486862182617,0.6409668922424316,0.11466455459594727
1733141830243594500,2.959594482421875,3.5963940620422363,3.159702777862549,0.017130136489868164
1733141830253599000,2.969598876953125,-3.369678497314453,4.4666523933410645,0.09438490867614746
1733141830263624400,2.97962451171875,-5.949242115020752,2.986024856567383,0.007985353469848633
1733141830273667600,2.98966748046875,-2.945934772491455,0.8379921913146973,-0.2991189956665039
1733141830283731200,2.999731201171875,-0.5720477104187012,-0.6637821197509766,-0.1601870059967041
1733141830293813000,3.00981298828125,0.28256940841674805,-1.422487735748291,-0.18370652198791504
1733141830303911000,3.019910888671875,0.15506649017333984,-0.9122953414916992,-0.5695323944091797
1733141830314017300,3.030017333984375,-0.29504966735839844,-0.300107479095459,-0.20557618141174316
1733141830324134100,3.040134033203125,0.04917764663696289,0.010318279266357422,0.24064970016479492
1733141830334258000,3.0502578125,0.3245830535888672,0.11122989654541016,0.3058164119720459
1733141830344344000,3.060343994140625,-0.017455101013183594,0.06500720977783203,0.22663092613220215
1733141830354431700,3.070431640625,-0.42067480087280273,0.0798807144165039,0.011735916137695312
1733141830364426500,3.080426513671875,-0.3963456153869629,0.06891775131225586,-0.28939366340637207
1733141830374423300,3.09042333984375,-0.09315109252929688,0.0335230827331543,-0.4637143611907959
1733141830384423700,3.100423583984375,0.18949508666992188,-0.005852699279785156,-0.44414544105529785
1733141830394429200,3.11042919921875,0.3905215263366699,-0.07238912582397461,-0.3317985534667969
1733141830404440800,3.12044091796875,0.5288181304931641,-0.16100263595581055,-0.1426699161529541
1733141830414460000,3.1304599609375,0.490694522857666,-0.17111825942993164,-0.0005340576171875
1733141830424487000,3.14048681640625,0.28629636764526367,-0.15108680725097656,0.0622706413269043
1733141830434522000,3.150522216796875,0.06315755844116211,-0.13077974319458008,0.09966564178466797
1733141830444565200,3.160565185546875,-0.08873462677001953,-0.07761287689208984,0.08865904808044434
1733141830454616000,3.170615966796875,-0.1894831657409668,0.007182598114013672,0.10736489295959473
1733141830464675300,3.18067529296875,-0.2495884895324707,0.04622983932495117,0.14222383499145508
1733141830474740500,3.190740478515625,-0.26447582244873047,0.03963613510131836,0.09287476539611816
1733141830484810800,3.200810791015625,-0.1233987808227539,0.022124290466308594,-0.0415501594543457
1733141830494884400,3.21088427734375,0.027156829833984375,-0.004555702209472656,-0.1566159725189209
1733141830504960000,3.2209599609375,0.1554121971130371,-0.00102996826171875,-0.1330890655517578
1733141830515036400,3.231036376953125,0.23868751525878906,0.0331416130065918,0.009982585906982422
1733141830525093000,3.241093017578125,0.27278757095336914,0.10749340057373047,0.12468075752258301
1733141830535152400,3.25115234375,0.22921037673950195,0.18328285217285156,0.1500244140625
1733141830545182000,3.261181884765625,0.0637216567993164,0.22131824493408203,0.11496686935424805
1733141830555211800,3.271211669921875,-0.1256260871887207,0.20568561553955078,0.11039400100708008
1733141830565242400,3.281242431640625,-0.2114109992980957,0.15018844604492188,0.015906333923339844
1733141830575278800,3.29127880859375,-0.16585159301757812,0.040697574615478516,-0.03559112548828125
1733141830585321200,3.3013212890625,-0.017464160919189453,-0.012119770050048828,-0.04973173141479492
1733141830595364600,3.311364501953125,0.20664501190185547,-0.016860485076904297,-0.00728154182434082
1733141830605410600,3.32141064453125,0.2787752151489258,0.03673696517944336,0.039842844009399414
1733141830615457300,3.331457275390625,0.2531719207763672,0.12480974197387695,0.04062962532043457
1733141830625504000,3.34150390625,0.13900041580200195,0.1561875343322754,-0.00033211708068847656
1733141830635551000,3.351551025390625,0.06874513626098633,0.11590147018432617,-0.026062726974487305
1733141830645593900,3.36159375,0.021895408630371094,0.056157588958740234,-0.06598377227783203
1733141830655635200,3.37163525390625,0.02610635757446289,0.048262596130371094,-0.09672260284423828
1733141830665676300,3.38167626953125,0.04754018783569336,0.044341087341308594,-0.15226984024047852
1733141830675717600,3.391717529296875,0.0962834358215332,0.05437517166137695,-0.1419382095336914
1733141830685759000,3.401759033203125,0.13018131256103516,0.06444740295410156,-0.08942198753356934
1733141830695800300,3.41180029296875,0.1217045783996582,0.0702676773071289,-0.05636429786682129
1733141830705841700,3.421841552734375,0.11914491653442383,0.07207012176513672,-0.05214953422546387
1733141830715883300,3.43188330078125,0.15615129470825195,0.0605010986328125,-0.05766773223876953
1733141830725927000,3.441927001953125,0.08466148376464844,0.049799442291259766,-0.04367661476135254
1733141830735968800,3.45196875,0.023298263549804688,0.034442901611328125,-0.01501011848449707
1733141830746009600,3.462009521484375,-0.05270195007324219,0.018800735473632812,-0.015063047409057617
1733141830756050400,3.472050537109375,-0.15875720977783203,0.026171207427978516,-0.05372190475463867
1733141830766096100,3.48209619140625,-0.16907739639282227,0.03641366958618164,-0.09639406204223633
1733141830776137000,3.492136962890625,-0.0677480697631836,0.022109031677246094,-0.10126948356628418
1733141830786182400,3.502182373046875,0.003101825714111328,0.02191448211669922,-0.05917167663574219
1733141830796219600,3.5122197265625,0.08716773986816406,0.01718759536743164,0.005783557891845703
1733141830806261800,3.52226171875,0.11428260803222656,0.022366046905517578,0.06086254119873047
1733141830816303000,3.53230322265625,0.06686258316040039,0.023248672485351562,0.07352566719055176
1733141830826343200,3.54234326171875,0.021071910858154297,0.014735698699951172,0.05899238586425781
1733141830836388000,3.55238818359375,-0.047147274017333984,-0.003146648406982422,-0.0439915657043457
1733141830846433500,3.56243359375,-0.10539484024047852,-0.02587747573852539,-0.12630558013916016
1733141830856483300,3.5724833984375,-0.06977462768554688,-0.05829572677612305,-0.127760648727417
1733141830866512100,3.58251220703125,-0.026459693908691406,-0.07164573669433594,-0.04548811912536621
1733141830876541200,3.592541259765625,-0.045571327209472656,-0.051971435546875,-0.030872583389282227
1733141830886576000,3.602576171875,-0.03155040740966797,-0.04215669631958008,-0.049478769302368164
1733141830896612000,3.612612060546875,-0.07003116607666016,-0.027651309967041016,-0.09713292121887207
1733141830906654000,3.622654052734375,-0.12201976776123047,0.01983356475830078,-0.06924033164978027
1733141830916701400,3.632701416015625,-0.0926361083984375,0.03354978561401367,0.010697603225708008
1733141830926754300,3.64275439453125,-0.04889535903930664,0.004615306854248047,0.0622711181640625
1733141830936803000,3.652802978515625,-0.005271434783935547,-0.033269405364990234,0.07633757591247559
1733141830946856400,3.6628564453125,-0.018923282623291016,-0.04247760772705078,0.03886604309082031
1733141830956886500,3.672886474609375,-0.06159782409667969,-0.033290863037109375,-0.012258529663085938
1733141830966921700,3.682921630859375,-0.019956111907958984,-0.02021503448486328,-0.08170485496520996
1733141830976957700,3.692957763671875,0.0392303466796875,-0.026343345642089844,-0.09411454200744629
1733141830986994200,3.702994140625,0.045786380767822266,-0.01322793960571289,-0.07848596572875977
1733141830997036300,3.713036376953125,0.048027992248535156,0.004754066467285156,-0.06790876388549805
1733141831007079200,3.7230791015625,0.04149580001831055,0.01842784881591797,-0.09108376502990723
1733141831017127200,3.733127197265625,0.011874198913574219,0.03724384307861328,-0.09135293960571289
1733141831027180300,3.74318017578125,0.016050338745117188,0.060742855072021484,0.002440214157104492
1733141831037237500,3.753237548828125,0.030186176300048828,0.08873605728149414,0.08582162857055664
1733141831047262200,3.76326220703125,-0.007507801055908203,0.07360696792602539,0.10286760330200195
1733141831057287400,3.773287353515625,-0.007329463958740234,0.03482198715209961,0.025539636611938477
1733141831067318800,3.78331884765625,0.0017070770263671875,0.015319347381591797,-0.05091071128845215
1733141831077356300,3.793356201171875,0.0053081512451171875,0.02887868881225586,-0.12644171714782715
1733141831087400000,3.80339990234375,0.0037784576416015625,0.0469365119934082,-0.14009642601013184
1733141831097449200,3.81344921875,-0.050171852111816406,0.05998563766479492,-0.12629246711730957
1733141831107499300,3.823499267578125,-0.1509571075439453,0.07272052764892578,-0.06639862060546875
1733141831117554200,3.83355419921875,-0.19833898544311523,0.07095813751220703,-0.02141857147216797
1733141831127613200,3.84361328125,-0.13609552383422852,0.040802955627441406,0.03812003135681152
1733141831137675800,3.85367578125,-0.07912349700927734,-0.003017425537109375,0.045717716217041016
1733141831147740700,3.86374072265625,-0.07024860382080078,-0.017898082733154297,0.02500295639038086
1733141831157806800,3.873806884765625,-0.005137443542480469,-0.018818378448486328,0.04782557487487793
1733141831167873300,3.883873291015625,0.021099090576171875,-0.02005624771118164,-0.013876676559448242
1733141831177923300,3.89392333984375,-0.019631385803222656,-0.021534442901611328,-0.09840607643127441
1733141831187921000,3.9039208984375,-0.013033390045166016,-0.008874893188476562,-0.12569832801818848
1733141831197921800,3.913921875,0.04560422897338867,-0.0007967948913574219,-0.09629964828491211
1733141831207927800,3.923927734375,0.0570378303527832,0.0028600692749023438,-0.05756068229675293
1733141831217940000,3.93393994140625,0.04533100128173828,0.006826877593994141,-0.04294157028198242
1733141831227959300,3.943959228515625,0.010525703430175781,0.010935306549072266,-0.005092144012451172
1733141831237986600,3.953986572265625,-0.005068778991699219,0.0006785392761230469,0.03689169883728027
1733141831248021800,3.964021728515625,0.0028905868530273438,-0.005113124847412109,0.09290885925292969
1733141831258065000,3.97406494140625,0.06191301345825195,-0.03021240234375,0.06825947761535645
1733141831268115500,3.984115478515625,0.13833093643188477,-0.012702465057373047,-0.0033330917358398438
1733141831278168300,3.994168212890625,0.12857294082641602,0.014146804809570312,-0.10738945007324219
1733141831288227600,4.0042275390625,0.09054279327392578,0.0501708984375,-0.14451813697814941
1733141831298292200,4.014292236328125,0.010280609130859375,0.0715188980102539,-0.14423751831054688
1733141831308345600,4.024345703125,-0.041118621826171875,0.07370615005493164,-0.14055180549621582
1733141831318403600,4.034403564453125,-0.040204524993896484,0.0805511474609375,-0.12334060668945312
1733141831328464600,4.044464599609375,0.10738372802734375,0.07808113098144531,-0.025815963745117188
1733141831338528500,4.054528564453125,0.26403141021728516,0.07178783416748047,0.0525667667388916
1733141831348594000,4.064593994140625,0.2603001594543457,0.062014102935791016,0.07896065711975098
1733141831358554400,4.074554443359375,0.13033723831176758,0.019819259643554688,0.10070013999938965
1733141831368522800,4.084522705078125,-0.0024042129516601562,0.0017271041870117188,0.11266374588012695
1733141831378501600,4.094501708984375,-0.11935710906982422,0.011790275573730469,0.03502941131591797
1733141831388493300,4.104493408203125,-0.12245416641235352,0.02092266082763672,0.010512828826904297
1733141831398499300,4.114499267578125,-0.017847537994384766,0.015252113342285156,0.03365063667297363
1733141831408515600,4.124515625,0.06154346466064453,0.00016546249389648438,0.03319835662841797
1733141831418547200,4.134547119140625,0.04120445251464844,-0.009777069091796875,0.00960397720336914
1733141831428594400,4.144594482421875,0.0027065277099609375,-0.000514984130859375,-0.01351618766784668
1733141831438651600,4.154651611328125,0.0073986053466796875,-0.005419731140136719,-0.00803995132446289
1733141831448722200,4.16472216796875,-0.0021696090698242188,-0.005686283111572266,0.016491413116455078
1733141831458799900,4.1747998046875,0.007102012634277344,-0.010767936706542969,-0.0017857551574707031
1733141831468887800,4.1848876953125,0.06770849227905273,0.0030035972595214844,-0.005977630615234375
1733141831478978800,4.194978759765625,0.07056760787963867,0.021432876586914062,-0.020282506942749023
1733141831489071600,4.205071533203125,-0.015970230102539062,0.020960330963134766,-0.0394132137298584
1733141831499168300,4.215168212890625,-0.06797218322753906,0.0017390251159667969,-0.025275707244873047
1733141831509179100,4.22517919921875,-0.05769205093383789,0.0017161369323730469,-0.03473711013793945
1733141831519196200,4.235196044921875,0.01402425765991211,0.02071237564086914,-0.020326614379882812
1733141831529220000,4.24522021484375,0.06581592559814453,0.05364561080932617,-0.0015554428100585938
1733141831539246300,4.255246337890625,0.08834409713745117,0.0719304084777832,0.016605615615844727
1733141831549280300,4.2652802734375,0.10142135620117188,0.0900716781616211,0.029913902282714844
1733141831559317000,4.27531689453125,0.08234405517578125,0.08463239669799805,0.09111237525939941
1733141831569361700,4.285361572265625,0.04608154296875,0.041947364807128906,0.06779074668884277
1733141831579414000,4.2954140625,-0.03112936019897461,-0.00921010971069336,-0.039156198501586914
1733141831589468000,4.305468017578125,-0.08363151550292969,-0.04053449630737305,-0.06477499008178711
1733141831599528000,4.31552783203125,-0.08426380157470703,-0.0575261116027832,-0.033972978591918945
1733141831609588200,4.325588134765625,-0.08571243286132812,-0.032192230224609375,-0.027698516845703125
1733141831619652900,4.33565283203125,-0.06470394134521484,0.0015339851379394531,0.011126041412353516
1733141831629720800,4.345720947265625,-0.039945125579833984,0.015482425689697266,0.025669097900390625
1733141831639721200,4.35572119140625,-0.015663623809814453,0.029058456420898438,0.007231712341308594
1733141831649727700,4.365727783203125,0.037186622619628906,0.03800010681152344,0.00363922119140625
1733141831659737000,4.375737060546875,0.08063793182373047,0.02364826202392578,-0.008857011795043945
1733141831669755400,4.38575537109375,0.07221651077270508,0.019436359405517578,-0.01651597023010254
1733141831679778000,4.395778076171875,0.06852960586547852,0.01544952392578125,-0.010483503341674805
1733141831689806000,4.40580615234375,0.06938457489013672,0.03515148162841797,-0.00509333610534668
1733141831699844400,4.41584423828125,0.09870624542236328,0.06411170959472656,-0.02340221405029297
1733141831709887700,4.4258876953125,0.13297653198242188,0.06461477279663086,-0.055077552795410156
1733141831719940900,4.43594091796875,0.11114931106567383,0.056177616119384766,-0.1093454360961914
1733141831730003000,4.4460029296875,0.08575153350830078,0.034230709075927734,-0.12964940071105957
1733141831740072000,4.456072021484375,0.05181741714477539,0.022359848022460938,-0.11187124252319336
1733141831750147000,4.46614697265625,0.022896766662597656,0.005936622619628906,-0.05231499671936035
1733141831760227000,4.47622705078125,0.00350189208984375,-0.000949859619140625,0.015453815460205078
1733141831770310100,4.48631005859375,0.01235055923461914,0.0014395713806152344,0.03506636619567871
1733141831780394500,4.49639453125,-0.044954776763916016,0.027301788330078125,-0.0021524429321289062
1733141831790466600,4.506466552734375,-0.11112785339355469,0.005436897277832031,-0.03894305229187012
1733141831800508700,4.5165087890625,-0.0969085693359375,-0.021183490753173828,-0.051866769790649414
1733141831810429400,4.526429443359375,-0.0646524429321289,-0.07123661041259766,-0.1071164608001709
1733141831820359700,4.536359619140625,-0.07593250274658203,-0.09242439270019531,-0.17127180099487305
1733141831830303700,4.5463037109375,-0.06918478012084961,-0.12301492691040039,-0.13626337051391602
1733141831840260400,4.55626025390625,-0.0870962142944336,-0.09684228897094727,-0.0886542797088623
1733141831850236700,4.566236572265625,-0.10551977157592773,-0.06694746017456055,0.010008096694946289
1733141831860230100,4.576230224609375,-0.058119773864746094,-0.0380406379699707,0.07453489303588867
1733141831870246400,4.586246337890625,0.0027523040771484375,-0.023924827575683594,0.0773932933807373
1733141831880281000,4.596281005859375,-0.002789020538330078,-0.033589839935302734,0.03870368003845215
1733141831890338600,4.606338623046875,-0.050426483154296875,-0.03371763229370117,-0.0035872459411621094
1733141831900417300,4.616417236328125,-0.11189889907836914,-0.010465145111083984,-0.05968952178955078
1733141831910515000,4.626514892578125,-0.08362913131713867,0.01210165023803711,-0.08716654777526855
1733141831920628500,4.63662841796875,0.04261970520019531,0.029414653778076172,-0.10043787956237793
1733141831930749400,4.64674951171875,0.11484050750732422,0.032338619232177734,-0.0901801586151123
1733141831940879000,4.656879150390625,0.13905668258666992,0.059177398681640625,-0.0900106430053711
1733141831951014100,4.66701416015625,0.16357946395874023,0.05785417556762695,-0.08061408996582031
1733141831961150000,4.67714990234375,0.14673185348510742,0.07617998123168945,-0.0049784183502197266
1733141831971217200,4.687217041015625,0.08456563949584961,0.07130670547485352,0.0325617790222168
1733141831981258800,4.6972587890625,0.019293785095214844,0.04774332046508789,0.046685218811035156
1733141831991300600,4.707300537109375,-0.0025072097778320312,0.019717693328857422,0.009078264236450195
1733141832001342200,4.71734228515625,-0.03405570983886719,0.010721206665039062,-0.04247117042541504
1733141832011383800,4.7273837890625,-0.037502288818359375,0.006367206573486328,-0.051362037658691406
1733141832021425400,4.73742529296875,-0.09350061416625977,-0.007597923278808594,-0.07018160820007324
1733141832031346700,4.7473466796875,-0.08359670639038086,-0.03124094009399414,-0.051419973373413086
1733141832041277400,4.75727734375,-0.04615974426269531,-0.05475950241088867,-0.03795337677001953
1733141832051221800,4.7672216796875,-0.023514747619628906,-0.03080892562866211,0.013003110885620117
1733141832061178600,4.7771787109375,-0.01007080078125,-0.02589702606201172,0.040040016174316406
1733141832071155200,4.7871552734375,0.003735065460205078,-0.030382156372070312,0.03435087203979492
1733141832081153500,4.797153564453125,0.022609233856201172,-0.015697956085205078,0.010264396667480469
1733141832091173400,4.80717333984375,-0.010391712188720703,-0.0011162757873535156,-0.013338565826416016
1733141832101210600,4.817210693359375,-0.029100894927978516,0.012970924377441406,-0.05070853233337402
1733141832111270100,4.827270263671875,-0.03875017166137695,0.0030603408813476562,-0.08334541320800781
1733141832121350400,4.837350341796875,-0.025129318237304688,-0.0020389556884765625,-0.04534745216369629
1733141832131443700,4.847443603515625,-0.01646566390991211,0.0024566650390625,-0.00823068618774414
1733141832141552600,4.857552734375,-0.002841472625732422,-0.0023255348205566406,0.009530782699584961
1733141832151674000,4.867674072265625,-0.01202535629272461,-0.011387825012207031,-0.0005295276641845703
1733141832161799000,4.877798828125,-0.06737089157104492,-0.02953481674194336,0.018696308135986328
1733141832171929000,4.88792919921875,-0.09805536270141602,-0.03343343734741211,0.005394458770751953
1733141832181972200,4.89797216796875,-0.10995006561279297,-0.05650758743286133,0.011203289031982422
1733141832192020000,4.90802001953125,-0.09442901611328125,-0.04683113098144531,0.011986017227172852
1733141832202057200,4.91805712890625,-0.08961963653564453,-0.014317512512207031,-0.02997279167175293
1733141832212094700,4.9280947265625,-0.0388941764831543,0.012464523315429688,-0.038909196853637695
1733141832222137000,4.93813720703125,0.06728792190551758,0.029300689697265625,-0.01490926742553711
1733141832232179700,4.9481796875,0.11124324798583984,0.0414738655090332,-0.033217668533325195
1733141832242227000,4.95822705078125,0.06097888946533203,0.0163116455078125,-0.05138397216796875
1733141832252278800,4.96827880859375,-0.006899833679199219,0.024972915649414062,-0.09792327880859375
1733141832262333400,4.97833349609375,0.006129741668701172,0.0005459785461425781,-0.08304309844970703
1733141832272391400,4.988391357421875,0.05664682388305664,-0.014029979705810547,-0.04017138481140137
1733141832282451700,4.99845166015625,0.003070354461669922,-0.0093231201171875,-0.044960975646972656
1733141832292512000,5.008511962890625,-0.07792854309082031,-0.03304862976074219,-0.04953408241271973
1733141832302473500,5.018473388671875,-0.11593484878540039,-0.042447566986083984,-0.026514291763305664
1733141832312438300,5.028438232421875,-0.1019906997680664,0.004639148712158203,0.0052187442779541016
1733141832322414000,5.0384140625,-0.0507049560546875,0.02233743667602539,0.0653371810913086
1733141832332398300,5.0483984375,0.02800750732421875,0.006567478179931641,0.07314515113830566
1733141832342397400,5.0583974609375,0.07805442810058594,0.0008058547973632812,0.024993419647216797
1733141832352408000,5.068407958984375,0.005710124969482422,0.000263214111328125,-0.007707834243774414
1733141832362436000,5.07843603515625,-0.10781288146972656,0.004451274871826172,-0.053997039794921875
1733141832372476000,5.088475830078125,-0.1212000846862793,0.003597259521484375,-0.04818129539489746
1733141832382532400,5.098532470703125,-0.05027294158935547,0.011939048767089844,-0.05245661735534668
1733141832392599000,5.10859912109375,0.00018072128295898438,0.0010676383972167969,-0.0379793643951416
1733141832402679600,5.118679443359375,0.068634033203125,-0.0002675056457519531,-0.018868446350097656
1733141832412767000,5.12876708984375,0.07033586502075195,-0.0014176368713378906,-0.05644512176513672
1733141832422859500,5.138859619140625,0.034682273864746094,-0.006908416748046875,-0.08424878120422363
1733141832432959700,5.148959716796875,0.046964168548583984,-0.0121002197265625,-0.06932735443115234
1733141832443064300,5.159064208984375,0.10658121109008789,-0.012209892272949219,-0.016967296600341797
1733141832453099000,5.16909912109375,0.07610845565795898,-0.007290363311767578,-0.012693643569946289
1733141832463138800,5.179138916015625,0.017547130584716797,0.0115814208984375,-0.008787155151367188
1733141832473183500,5.18918359375,0.0019001960754394531,0.03464317321777344,-0.000476837158203125
1733141832483232800,5.199232666015625,-0.03738689422607422,0.03831291198730469,0.002821207046508789
1733141832493286000,5.209285888671875,-0.08580446243286133,0.03699350357055664,0.006009817123413086
1733141832503342800,5.2193427734375,-0.049076080322265625,0.035370826721191406,0.023332595825195312
1733141832513402400,5.22940234375,0.058068275451660156,0.02913951873779297,0.040773868560791016
1733141832523463700,5.239463623046875,0.06534910202026367,0.02815723419189453,0.025272130966186523
1733141832533526300,5.2495263671875,0.006980419158935547,0.013340950012207031,-0.013527870178222656
1733141832543589000,5.259589111328125,-0.03596973419189453,-0.015058040618896484,-0.042504072189331055
1733141832553636900,5.269636962890625,-0.08316230773925781,-0.010059833526611328,-0.0429997444152832
1733141832563644400,5.27964453125,-0.08739519119262695,-0.00047588348388671875,-0.02019810676574707
1733141832573654800,5.28965478515625,-0.10575628280639648,0.018196582794189453,0.0402371883392334
1733141832583668700,5.299668701171875,-0.11461782455444336,0.040888309478759766,0.04841351509094238
1733141832593687800,5.309687744140625,-0.1192770004272461,0.05324840545654297,0.05669879913330078
1733141832603707400,5.319707275390625,-0.025269508361816406,0.04151105880737305,0.08867335319519043
1733141832613733400,5.3297333984375,0.02521371841430664,0.03009796142578125,0.08754396438598633
1733141832623766000,5.33976611328125,0.042847633361816406,0.028641223907470703,0.05889725685119629
1733141832633805600,5.3498056640625,0.06605195999145508,0.013540267944335938,0.012612581253051758
1733141832643851500,5.3598515625,0.05683088302612305,-0.024453163146972656,-0.037097930908203125
1733141832653904000,5.36990380859375,0.010452747344970703,-0.03798723220825195,-0.08132147789001465
1733141832663961600,5.379961669921875,-0.01690196990966797,-0.009111404418945312,-0.11581707000732422
1733141832674024200,5.390024169921875,-0.030476093292236328,-0.009253978729248047,-0.1268317699432373
1733141832684090400,5.40009033203125,-0.006943225860595703,0.004567623138427734,-0.11500382423400879
1733141832694158800,5.410158935546875,0.07259798049926758,0.037068843841552734,-0.07077717781066895
1733141832704228900,5.420228759765625,0.1138010025024414,0.055341243743896484,-0.02257823944091797
1733141832714184200,5.43018408203125,0.04209756851196289,0.06913280487060547,-0.008106231689453125
1733141832724142800,5.440142822265625,-0.028377056121826172,0.05926942825317383,-0.01770305633544922
1733141832734112800,5.45011279296875,0.057283878326416016,0.035300254821777344,0.014772176742553711
1733141832744096800,5.4600966796875,0.1322917938232422,0.0024595260620117188,0.013675689697265625
1733141832754096400,5.470096435546875,0.0982675552368164,-0.020273208618164062,-0.029207229614257812
1733141832764110800,5.48011083984375,-0.015309810638427734,-0.047196388244628906,-0.04822564125061035
1733141832774139600,5.4901396484375,-0.11351776123046875,-0.04084157943725586,-0.01580977439880371
1733141832784180500,5.500180419921875,-0.09769439697265625,-0.03975629806518555,0.03493452072143555
1733141832794233300,5.5102333984375,0.04509782791137695,-0.034117698669433594,0.08052682876586914
1733141832804297200,5.520297119140625,0.11588239669799805,-0.0330042839050293,0.05569767951965332
1733141832814370600,5.53037060546875,0.06878185272216797,-0.0456538200378418,-0.0009062290191650391
1733141832824451800,5.540451904296875,-0.048232078552246094,-0.02979135513305664,-0.028435945510864258
1733141832834539000,5.5505390625,-0.12201833724975586,-0.009883403778076172,-0.04692721366882324
1733141832844634400,5.56063427734375,-0.06377029418945312,0.01866006851196289,-0.018680572509765625
1733141832854735000,5.570735107421875,0.03584098815917969,0.022997379302978516,-0.004709959030151367
1733141832864809200,5.580809326171875,0.05902576446533203,0.003911495208740234,-0.018746614456176758
1733141832874873000,5.590873046875,0.04499197006225586,-0.014530658721923828,-0.05550837516784668
1733141832884891100,5.60089111328125,0.032056331634521484,-0.01819896697998047,-0.04395699501037598
1733141832894910000,5.610909912109375,-0.041432857513427734,-0.02638721466064453,-0.060404300689697266
1733141832904930800,5.620930908203125,-0.09572219848632812,-0.034816741943359375,-0.06764101982116699
1733141832914954000,5.6309541015625,-0.11285972595214844,-0.024801254272460938,-0.05693936347961426
1733141832924985000,5.640985107421875,-0.08387994766235352,-0.015560626983642578,-0.042299509048461914
1733141832935020800,5.651020751953125,-0.022931575775146484,0.0074100494384765625,-0.04228043556213379
1733141832945060000,5.66106005859375,0.013544082641601562,0.015897274017333984,-0.042180776596069336
1733141832955103000,5.67110302734375,0.026233196258544922,0.010402679443359375,-0.04219412803649902
1733141832965148700,5.681148681640625,0.029419422149658203,-0.013711929321289062,-0.028185606002807617
1733141832975197400,5.691197509765625,0.05638742446899414,0.0003833770751953125,-0.0001163482666015625
1733141832985253600,5.701253662109375,0.03144550323486328,0.0002193450927734375,0.004254341125488281
1733141832995315200,5.711315185546875,-0.01686716079711914,-0.004762172698974609,0.0037326812744140625
1733141833005377000,5.721376953125,-0.007940292358398438,-0.005015373229980469,0.017354488372802734
1733141833015434000,5.73143408203125,-0.008469581604003906,-0.005166530609130859,-0.00699162483215332
1733141833025475600,5.7414755859375,-0.04620218276977539,0.03275299072265625,-0.0263824462890625
1733141833035516400,5.751516357421875,-0.06894254684448242,0.0371708869934082,-0.017075300216674805
1733141833045557200,5.76155712890625,-0.07222890853881836,0.02734851837158203,0.00667119026184082
1733141833055598000,5.77159814453125,-0.08974170684814453,0.012783527374267578,0.011421680450439453
1733141833065639200,5.78163916015625,-0.050806522369384766,0.012225151062011719,0.06350445747375488
1733141833075680300,5.79168017578125,0.006192684173583984,0.0019812583923339844,0.053939104080200195
1733141833085721600,5.8017216796875,-0.0035982131958007812,0.0013842582702636719,0.016321182250976562
1733141833095763200,5.81176318359375,0.029568195343017578,0.0010037422180175781,-0.034670352935791016
1733141833105809400,5.821809326171875,0.06293821334838867,-0.008336067199707031,-0.056439876556396484
1733141833115850800,5.831850830078125,0.030320167541503906,-0.012384891510009766,-0.06861710548400879
1733141833125896400,5.841896484375,-0.030036449432373047,-0.011633872985839844,-0.07596015930175781
1733141833135935200,5.851935302734375,-0.075927734375,-0.020621776580810547,-0.07411026954650879
1733141833145978600,5.861978515625,-0.0702505111694336,-0.01575946807861328,-0.06346464157104492
1733141833156020000,5.87202001953125,0.014699935913085938,0.012251853942871094,-0.010976076126098633
1733141833166066000,5.88206591796875,0.08423137664794922,0.016315937042236328,0.012398719787597656
1733141833176100600,5.8921005859375,0.07786703109741211,0.039504051208496094,-0.0303804874420166
1733141833186135300,5.90213525390625,0.03936958312988281,0.039259910583496094,-0.06779313087463379
1733141833196170500,5.91217041015625,0.07756376266479492,0.011155128479003906,-0.029099464416503906
1733141833206208800,5.922208740234375,0.09732675552368164,-0.0017733573913574219,0.018668413162231445
1733141833216247600,5.93224755859375,-0.005039691925048828,-0.018938064575195312,-0.023381710052490234
1733141833226292200,5.942292236328125,-0.10622406005859375,-0.03592252731323242,-0.027637243270874023
1733141833236337400,5.95233740234375,-0.22612428665161133,-0.0061092376708984375,-0.02348494529724121
1733141833246388000,5.962387939453125,-0.2281041145324707,0.012654781341552734,0.0274655818939209
1733141833256443100,5.972443115234375,-0.07094192504882812,0.016167640686035156,0.04483485221862793
1733141833266502100,5.982502197265625,0.13140106201171875,0.005682945251464844,0.034302711486816406
1733141833276564200,5.992564208984375,0.17198562622070312,0.0009427070617675781,-0.02705860137939453
1733141833286560500,6.002560546875,0.08154869079589844,0.0019974708557128906,-0.07789754867553711
1733141833296563200,6.012563232421875,-0.016214370727539062,0.008417606353759766,-0.0814828872680664
1733141833306573800,6.02257373046875,-0.0604095458984375,-0.0036339759826660156,-0.05303478240966797
1733141833316593200,6.03259326171875,-0.042148590087890625,-0.038472652435302734,-0.016263246536254883
1733141833326619400,6.042619384765625,-0.056073665618896484,-0.038890838623046875,-0.03696560859680176
1733141833336655000,6.052655029296875,-0.10143518447875977,-0.0007028579711914062,-0.062120676040649414
1733141833346700500,6.062700439453125,-0.13013792037963867,0.10847616195678711,-0.1051337718963623
1733141833356755000,6.0727548828125,-0.1903548240661621,0.21652984619140625,-0.18988919258117676
1733141833366816800,6.082816650390625,-0.21239995956420898,0.25681304931640625,-0.1562514305114746
1733141833376885800,6.0928857421875,-0.1553640365600586,0.2345576286315918,-0.015536785125732422
1733141833386960600,6.102960693359375,-0.020287513732910156,0.19289350509643555,0.11863517761230469
1733141833397039400,6.113039306640625,0.07445573806762695,0.13700342178344727,0.17179322242736816
1733141833407120600,6.12312060546875,0.12000036239624023,0.057775020599365234,0.12134957313537598
1733141833417202700,6.13320263671875,0.15986251831054688,-0.02068471908569336,0.03978681564331055
1733141833427240000,6.143239990234375,0.1850285530090332,-0.15016412734985352,-0.010721921920776367
1733141833437278500,6.153278564453125,0.1531815528869629,-0.24037933349609375,-0.002507448196411133
1733141833447318000,6.163318115234375,0.09723186492919922,-0.2969932556152344,-0.027022123336791992
1733141833457358800,6.17335888671875,0.01676321029663086,-0.3254866600036621,-0.0092010498046875
1733141833467310300,6.183310302734375,-0.017580509185791016,-0.28850650787353516,-0.045032501220703125
1733141833477270000,6.19327001953125,-0.03896951675415039,-0.22921085357666016,-0.09108114242553711
1733141833487241200,6.2032412109375,-0.04676198959350586,-0.1475691795349121,-0.11375689506530762
1733141833497226200,6.213226318359375,-0.07346725463867188,-0.09564542770385742,-0.07491469383239746
1733141833507226600,6.2232265625,-0.09987878799438477,-0.05869150161743164,-0.03704214096069336
1733141833517238500,6.233238525390625,-0.13105440139770508,-0.055563926696777344,0.018800020217895508
1733141833527267600,6.243267578125,-0.18126487731933594,-0.0010542869567871094,0.05464649200439453
1733141833537313800,6.253313720703125,-0.20805644989013672,0.009473800659179688,0.12763643264770508
1733141833547376000,6.263376220703125,-0.2024526596069336,0.05211830139160156,0.13345026969909668
1733141833557453000,6.273453125,-0.1315908432006836,0.09810972213745117,0.11153244972229004
1733141833567542500,6.28354248046875,-0.04298067092895508,0.11010217666625977,0.10020256042480469
1733141833577642500,6.293642578125,0.02086353302001953,0.11242866516113281,0.1037747859954834
1733141833587745000,6.3037451171875,0.09824609756469727,0.09602022171020508,0.07946348190307617
1733141833597852700,6.313852783203125,0.16591405868530273,0.09465885162353516,0.017954349517822266
1733141833607962400,6.32396240234375,0.22028207778930664,0.09429073333740234,-0.051099300384521484
1733141833618055200,6.33405517578125,0.24782419204711914,0.09048652648925781,-0.1135568618774414
1733141833628097000,6.344096923828125,0.20168542861938477,0.05497884750366211,-0.13673067092895508
1733141833638138600,6.354138671875,0.0824127197265625,0.049189090728759766,-0.15922236442565918
1733141833648180500,6.364180419921875,0.0030918121337890625,0.024946212768554688,-0.15334582328796387
1733141833658222000,6.37422216796875,-0.00013828277587890625,-0.017910480499267578,-0.10102677345275879
1733141833668263700,6.384263671875,0.010735034942626953,-0.01753377914428711,-0.054726362228393555
1733141833678305300,6.39430517578125,0.0029740333557128906,-0.021732807159423828,-0.018320798873901367
1733141833688347100,6.40434716796875,-0.061127662658691406,-0.0211181640625,0.017505884170532227
1733141833698388700,6.414388671875,-0.13862323760986328,0.035834312438964844,0.07149910926818848
1733141833708430600,6.4244306640625,-0.1920619010925293,0.09108686447143555,0.12045645713806152
1733141833718448400,6.434448486328125,-0.1180562973022461,0.09266328811645508,0.1463167667388916
1733141833728468000,6.444468017578125,0.0017385482788085938,0.07490253448486328,0.13509535789489746
1733141833738490600,6.45449072265625,0.04896211624145508,0.0806574821472168,0.09680581092834473
1733141833748516600,6.4645166015625,0.08135318756103516,0.1048593521118164,0.017684221267700195
1733141833758546200,6.474546142578125,0.16983985900878906,0.11901998519897461,-0.05466723442077637
1733141833768561000,6.484560791015625,0.29964590072631836,0.12827682495117188,-0.12522578239440918
1733141833778581200,6.494581298828125,0.36200952529907227,0.10955142974853516,-0.13801813125610352
1733141833788608300,6.504608154296875,0.32970714569091797,0.05376911163330078,-0.12682080268859863
1733141833798642000,6.514641845703125,0.23680639266967773,-0.04812288284301758,-0.11577677726745605
1733141833808682500,6.5246826171875,0.14056730270385742,-0.18122386932373047,-0.11479330062866211
1733141833818729700,6.534729736328125,0.03159523010253906,-0.25039196014404297,-0.16719436645507812
1733141833828783000,6.544783203125,-0.10413837432861328,-0.2566843032836914,-0.15924453735351562
1733141833838842000,6.554842041015625,-0.1578044891357422,-0.1729602813720703,-0.11997532844543457
1733141833848905500,6.564905517578125,-0.12578487396240234,-0.07139444351196289,-0.025863170623779297
1733141833858972200,6.57497216796875,-0.0419611930847168,0.028830528259277344,0.0525205135345459
1733141833869041400,6.58504150390625,-0.00110626220703125,0.10418176651000977,0.04060697555541992
1733141833879111700,6.595111572265625,-0.03545951843261719,0.10814380645751953,0.0007064342498779297
1733141833889181000,6.605180908203125,-0.12552690505981445,0.06525230407714844,-0.057785987854003906
1733141833899223000,6.61522314453125,-0.22861957550048828,0.023184776306152344,-0.05973553657531738
1733141833909265000,6.625264892578125,-0.27429914474487305,-0.013701438903808594,0.003453969955444336
1733141833919306200,6.63530615234375,-0.25903797149658203,-0.01293802261352539,0.07487630844116211
1733141833929347600,6.64534765625,-0.22202539443969727,0.0009145736694335938,0.11213064193725586
1733141833939270400,6.6552705078125,-0.172698974609375,-0.00039577484130859375,0.09222078323364258
1733141833949203000,6.665202880859375,-0.10120391845703125,0.0071563720703125,0.08732008934020996
1733141833959148800,6.675148681640625,-0.06826210021972656,-0.01387929916381836,0.04119157791137695
1733141833969107000,6.68510693359375,-0.044675350189208984,-0.04385519027709961,-0.022274017333984375
1733141833979084500,6.69508447265625,-0.07755327224731445,-0.0778188705444336,-0.07032370567321777
1733141833989083400,6.70508349609375,-0.1288294792175293,-0.09706830978393555,-0.09422850608825684
1733141833999104800,6.715104736328125,-0.16568374633789062,-0.11152982711791992,-0.0945281982421875
1733141834009148200,6.725148193359375,-0.1840806007385254,-0.09327507019042969,-0.1093893051147461
1733141834019213000,6.735213134765625,-0.13714885711669922,-0.08059549331665039,-0.1241617202758789
1733141834029297200,6.745297119140625,-0.11009550094604492,-0.0824589729309082,-0.14802122116088867
1733141834039398400,6.7553984375,-0.14021682739257812,-0.09853029251098633,-0.13384318351745605
1733141834049513500,6.765513427734375,-0.16999483108520508,-0.10975790023803711,-0.11981391906738281
1733141834059639000,6.77563916015625,-0.1995701789855957,-0.13043451309204102,-0.12480401992797852
1733141834069766400,6.785766357421875,-0.1583700180053711,-0.0849618911743164,-0.1252751350402832
1733141834079897000,6.79589697265625,-0.08533668518066406,-0.054350852966308594,-0.09364438056945801
1733141834090015000,6.806014892578125,-0.04654216766357422,-0.005164146423339844,0.0074083805084228516
1733141834100056600,6.816056640625,0.04890775680541992,0.020028114318847656,0.06473326683044434
1733141834110098400,6.826098388671875,0.0313258171081543,0.050192832946777344,0.0986170768737793
1733141834120140000,6.83614013671875,-0.017583847045898438,0.01894998550415039,0.1617109775543213
1733141834130181600,6.846181640625,0.006305694580078125,0.0310211181640625,0.1590867042541504
1733141834140223500,6.856223388671875,-0.006863117218017578,0.03840446472167969,0.11063051223754883
1733141834150265000,6.86626513671875,0.05619239807128906,0.027066707611083984,0.011626243591308594
1733141834160307000,6.876306884765625,0.06624698638916016,0.021094799041748047,-0.10134148597717285
1733141834170229200,6.886229248046875,0.018725872039794922,0.010778427124023438,-0.1817307472229004
1733141834180161300,6.896161376953125,-0.005160808563232422,-0.004148006439208984,-0.1440896987915039
1733141834190106600,6.906106689453125,-0.010592937469482422,0.013822555541992188,-0.10288190841674805
1733141834200068900,6.91606884765625,0.021237850189208984,-0.02058887481689453,-0.03431224822998047
1733141834210050300,6.92605029296875,-0.051039695739746094,-0.04977130889892578,-0.004300117492675781
1733141834220052700,6.936052734375,-0.1464824676513672,-0.06474113464355469,-0.012829303741455078
1733141834230077000,6.946076904296875,-0.19891643524169922,-0.09405279159545898,-0.04528999328613281
1733141834240123000,6.956122802734375,-0.15699195861816406,-0.108978271484375,-0.049629926681518555
1733141834250189000,6.96618896484375,-0.054779052734375,-0.11430978775024414,-0.01645803451538086
1733141834260274200,6.976274169921875,0.050782203674316406,-0.10528278350830078,-0.007149219512939453
1733141834270375400,6.98637548828125,0.06069755554199219,-0.05849409103393555,-0.0309751033782959
1733141834280490000,6.996489990234375,0.004176139831542969,-0.031373023986816406,-0.07369112968444824
1733141834290614300,7.0066142578125,0.004594326019287109,-0.01901388168334961,-0.0831904411315918
1733141834300744700,7.01674462890625,0.02341938018798828,-0.011607170104980469,-0.031952619552612305
1733141834310877200,7.026877197265625,0.08455753326416016,0.019403934478759766,0.037218332290649414
1733141834320973800,7.036973876953125,0.1367015838623047,0.05075836181640625,0.07722187042236328
1733141834331015700,7.047015625,0.12860536575317383,0.07783269882202148,0.0890357494354248
1733141834341057500,7.0570576171875,0.10363435745239258,0.08653402328491211,0.07785558700561523
1733141834351099400,7.067099365234375,0.03321504592895508,0.09097433090209961,0.048613786697387695
1733141834361140700,7.077140625,-0.04013538360595703,0.07668352127075195,0.029852628707885742
1733141834371063300,7.087063232421875,-0.09805440902709961,0.04354381561279297,0.02633833885192871
1733141834380995300,7.096995361328125,-0.1459641456604004,0.01062917709350586,-0.00045180320739746094
1733141834390941000,7.10694091796875,-0.09965085983276367,0.005987644195556641,0.010954618453979492
1733141834400903400,7.1169033203125,-0.016876697540283203,-0.003539562225341797,0.03146696090698242
1733141834410885400,7.126885498046875,0.06441259384155273,0.005924224853515625,0.013796329498291016
1733141834420888000,7.13688818359375,0.11638975143432617,0.020259857177734375,-0.036876678466796875
1733141834430912500,7.14691259765625,0.0594029426574707,0.030032634735107422,-0.08730196952819824
1733141834440958500,7.15695849609375,0.008237361907958984,0.039928436279296875,-0.08084702491760254
1733141834451024600,7.167024658203125,-0.01828145980834961,0.05451774597167969,-0.06034255027770996
1733141834461109800,7.17710986328125,-0.025533199310302734,0.07364511489868164,-0.07809162139892578
1733141834471211000,7.1872109375,0.023985862731933594,0.09737348556518555,-0.06764006614685059
1733141834481325000,7.197324951171875,0.08749866485595703,0.1069345474243164,-0.05240631103515625
1733141834491444500,7.207444580078125,0.0707697868347168,0.08856534957885742,-0.046573638916015625
1733141834501570000,7.217570068359375,0.007796287536621094,0.05672597885131836,-0.02662062644958496
1733141834511645700,7.227645751953125,-0.05400562286376953,0.020719528198242188,0.016747713088989258
1733141834521724700,7.237724609375,-0.10102987289428711,0.003735065460205078,0.06457686424255371
1733141834531731000,7.24773095703125,-0.09174251556396484,-0.004253864288330078,0.07405447959899902
1733141834541743000,7.2577431640625,-0.022317886352539062,-0.008037567138671875,0.059851646423339844
1733141834551758000,7.267758056640625,0.036144256591796875,-0.011962890625,0.017486572265625
1733141834561780700,7.27778076171875,0.01828479766845703,-0.0014700889587402344,-0.03414011001586914
1733141834571812000,7.28781201171875,-0.031952857971191406,0.0138397216796875,-0.08512616157531738
1733141834581852000,7.297851806640625,-0.048102378845214844,0.024245262145996094,-0.05484652519226074
1733141834591900200,7.307900146484375,0.02609395980834961,0.02979278564453125,0.013578414916992188
1733141834601951000,7.317950927734375,0.06219482421875,-0.007031917572021484,0.011381149291992188
1733141834612009500,7.328009521484375,0.0368952751159668,-0.061901092529296875,-0.028162240982055664
1733141834622069000,7.338069091796875,-0.054383277893066406,-0.09697437286376953,-0.08208751678466797
1733141834632134400,7.348134521484375,-0.1640782356262207,-0.08939409255981445,-0.07023406028747559
1733141834642204000,7.358203857421875,-0.12686491012573242,-0.0918126106262207,0.011564016342163086
1733141834652276500,7.3682763671875,-0.010816097259521484,-0.04746055603027344,0.04477810859680176
1733141834662350800,7.378350830078125,0.13702154159545898,-0.0412898063659668,0.09697365760803223
1733141834672425500,7.388425537109375,0.12804412841796875,-0.03005838394165039,0.07843399047851562
1733141834682476000,7.39847607421875,-0.03605365753173828,-0.03770637512207031,-0.024655818939208984
1733141834692518100,7.40851806640625,-0.19844770431518555,-0.026678085327148438,-0.13181424140930176
1733141834702559200,7.418559326171875,-0.19947385787963867,-0.05408430099487305,-0.15833735466003418
1733141834712515300,7.428515380859375,-0.1400599479675293,-0.07210159301757812,-0.12804484367370605
1733141834722478000,7.43847802734375,-0.08675003051757812,-0.0712738037109375,-0.08404254913330078
1733141834732446000,7.448446044921875,-0.08171558380126953,-0.07065391540527344,-0.05016899108886719
1733141834742426000,7.458426025390625,-0.07723617553710938,-0.046793460845947266,-0.026310205459594727
1733141834752416000,7.468416015625,-0.0353083610534668,-0.01873016357421875,0.01128387451171875
1733141834762421800,7.478421875,0.020298004150390625,-0.00045299530029296875,0.03428173065185547
1733141834772439800,7.488439697265625,0.051914215087890625,0.031982421875,0.06631803512573242
1733141834782475300,7.498475341796875,0.036498069763183594,0.05475044250488281,0.027455806732177734
1733141834792522500,7.5085224609375,0.002635955810546875,0.048956871032714844,-0.00601959228515625
1733141834802586400,7.51858642578125,0.007222175598144531,0.02923727035522461,-0.015326499938964844
1733141834812660000,7.528659912109375,-0.03537893295288086,0.009846210479736328,-0.048033714294433594
1733141834822746600,7.53874658203125,-0.06837606430053711,0.004729270935058594,-0.03355526924133301
1733141834832839000,7.5488388671875,-0.05406761169433594,0.013584136962890625,0.008976459503173828
1733141834842935000,7.55893505859375,-0.03515958786010742,0.017464160919189453,0.004241943359375
1733141834853037300,7.569037353515625,0.007161617279052734,0.016562938690185547,-0.00008082389831542969
1733141834863143000,7.579142822265625,0.06334972381591797,0.020661354064941406,0.014568567276000977
1733141834873147600,7.589147705078125,0.07674264907836914,0.029874324798583984,0.00039958953857421875
1733141834883158800,7.59915869140625,0.0007171630859375,0.04403495788574219,-0.02344965934753418
1733141834893177000,7.609177001953125,-0.0788869857788086,0.05319833755493164,-0.04230070114135742
1733141834903203000,7.619203125,-0.13853025436401367,0.0337224006652832,-0.022928714752197266
1733141834913237500,7.629237548828125,-0.159912109375,-0.004773616790771484,-0.02211785316467285
1733141834923280000,7.63927978515625,-0.14358854293823242,-0.05246734619140625,-0.03492903709411621
1733141834933330000,7.649329833984375,-0.13745641708374023,-0.08556461334228516,-0.028681516647338867
1733141834943387400,7.659387451171875,-0.07987689971923828,-0.07125139236450195,-0.0034990310668945312
1733141834953451000,7.669450927734375,0.014370918273925781,-0.043074607849121094,0.011814117431640625
1733141834963514600,7.6795146484375,0.09808683395385742,-0.024461746215820312,0.007972002029418945
1733141834973582800,7.689582763671875,0.11996126174926758,-0.02447986602783203,-0.03346705436706543
1733141834983654000,7.69965380859375,0.06201505661010742,-0.023994922637939453,-0.0979924201965332
1733141834993649000,7.70964892578125,-0.02306509017944336,-0.018575191497802734,-0.15235567092895508
1733141835003650300,7.719650390625,-0.06925010681152344,-0.027420997619628906,-0.11657571792602539
1733141835013659600,7.72965966796875,-0.10124969482421875,-0.027048587799072266,-0.0534815788269043
1733141835023678000,7.739677978515625,-0.16667985916137695,-0.03189277648925781,-0.0013020038604736328
1733141835033706000,7.7497060546875,-0.2180032730102539,0.005077362060546875,0.002675294876098633
1733141835043743500,7.759743408203125,-0.12807321548461914,0.04082679748535156,-0.012313604354858398
1733141835053790500,7.76979052734375,0.03073596954345703,0.04763221740722656,-0.017935514450073242
1733141835063841500,7.779841552734375,0.1689162254333496,0.021754741668701172,-0.0418393611907959
1733141835073896000,7.78989599609375,0.15047883987426758,-0.0688481330871582,-0.07485008239746094
1733141835083958300,7.799958251953125,-0.013835430145263672,-0.07750749588012695,-0.13679265975952148
1733141835094027300,7.81002734375,-0.08250093460083008,-0.07704496383666992,-0.07640314102172852
1733141835104101000,7.82010107421875,0.013892650604248047,-0.07236623764038086,0.020225048065185547
1733141835114178800,7.8301787109375,0.12288379669189453,-0.05857038497924805,0.07832694053649902
1733141835124258800,7.8402587890625,0.16977643966674805,-0.016473770141601562,0.046999216079711914
1733141835134339000,7.850339111328125,0.1273961067199707,0.03026103973388672,-0.002511739730834961
1733141835144272600,7.860272705078125,0.053107261657714844,0.05308103561401367,-0.03755640983581543
1733141835154215200,7.870215087890625,0.03212308883666992,0.06629085540771484,-0.03441214561462402
1733141835164165600,7.88016552734375,0.06833267211914062,0.05577421188354492,0.020936012268066406
1733141835174127400,7.89012744140625,0.09458160400390625,0.04052019119262695,0.05248665809631348
1733141835184104400,7.9001044921875,0.09694814682006836,0.03481864929199219,0.05107998847961426
1733141835194097400,7.910097412109375,0.0759134292602539,0.024519920349121094,0.031152725219726562
1733141835204108000,7.92010791015625,0.017734050750732422,0.0003380775451660156,0.01169443130493164
1733141835214136300,7.93013623046875,-0.02531290054321289,0.00011491775512695312,-0.021518230438232422
1733141835224182300,7.940182373046875,-0.0016350746154785156,-0.014123916625976562,-0.0355534553527832
1733141835234244900,7.950244873046875,0.026517391204833984,-0.027930736541748047,-0.030758142471313477
1733141835244322800,7.96032275390625,0.0492863655090332,-0.032140254974365234,-0.03568530082702637
1733141835254414000,7.9704140625,0.08117389678955078,-0.03154945373535156,-0.01217961311340332
1733141835264518400,7.980518310546875,0.07019805908203125,-0.03083324432373047,-0.012868642807006836
1733141835274631700,7.990631591796875,0.0025162696838378906,-0.044226646423339844,-0.023714065551757812
1733141835284749600,8.00074951171875,-0.003242015838623047,-0.04344797134399414,-0.01584005355834961
1733141835294868700,8.01086865234375,0.010273456573486328,-0.028578758239746094,-0.002697467803955078
1733141835304939300,8.020939208984375,-0.009049415588378906,-0.032862186431884766,0.0016334056854248047
1733141835314981400,8.0309814453125,-0.03293323516845703,-0.051321983337402344,-0.0035271644592285156
1733141835325023200,8.041023193359376,-0.05204582214355469,-0.0411224365234375,-0.0330047607421875
1733141835335065000,8.051065185546875,-0.10429191589355469,-0.017014503479003906,-0.03914523124694824
1733141835345108700,8.061108642578125,-0.12308931350708008,-0.012346744537353516,-0.03124094009399414
1733141835355148300,8.071148193359376,-0.10421514511108398,0.006158351898193359,-0.028178691864013672
1733141835365189000,8.081189208984375,-0.05276155471801758,-0.008617401123046875,0.012356281280517578
1733141835375234800,8.09123486328125,-0.03045654296875,-0.023231029510498047,0.0429842472076416
1733141835385284900,8.101284912109374,-0.012708663940429688,0.00013589859008789062,0.050367116928100586
1733141835395338800,8.1113388671875,-0.06045866012573242,0.009168624877929688,0.03963017463684082
1733141835405396500,8.121396484375,-0.08821296691894531,0.008652687072753906,0.024935483932495117
1733141835415454200,8.1314541015625,-0.05879020690917969,0.012886524200439453,-0.008113861083984375
1733141835425452300,8.141452392578126,-0.024950027465820312,0.007738590240478516,-0.03584861755371094
1733141835435451600,8.15145166015625,-0.029370784759521484,-0.011343002319335938,-0.07758235931396484
1733141835445453800,8.161453857421876,-0.005744457244873047,-0.006424427032470703,-0.10065150260925293
1733141835455460400,8.17146044921875,0.007637977600097656,0.007851600646972656,-0.09589123725891113
1733141835465472500,8.181472412109375,0.011007308959960938,-0.015842437744140625,-0.0823366641998291
1733141835475491000,8.191490966796875,0.06624603271484375,-0.029580116271972656,-0.02680063247680664
1733141835485517000,8.20151708984375,0.027054786682128906,-0.023693561553955078,-0.01952195167541504
1733141835495550500,8.211550537109375,-0.08657550811767578,-0.022445201873779297,-0.017024755477905273
1733141835505596200,8.22159619140625,-0.062014102935791016,-0.021459102630615234,0.023197412490844727
1733141835515648800,8.231648681640625,-0.013975143432617188,0.01261758804321289,0.025307416915893555
1733141835525712600,8.241712646484375,-0.04655265808105469,0.003605365753173828,0.03291440010070801
1733141835535781000,8.251781005859375,-0.10243034362792969,-0.029012203216552734,0.0262908935546875
1733141835545858000,8.261858154296876,-0.18202829360961914,-0.023907184600830078,-0.004356861114501953
1733141835555937000,8.27193701171875,-0.1485152244567871,-0.019812583923339844,0.04110121726989746
1733141835566021000,8.282021240234375,0.0015072822570800781,-0.01636505126953125,0.05312514305114746
1733141835576066300,8.29206640625,0.1636357307434082,-0.01766681671142578,0.051616668701171875
1733141835586116000,8.3021162109375,0.1968846321105957,-0.018382549285888672,0.04572415351867676
1733141835596149500,8.3121494140625,0.11709928512573242,-0.02337169647216797,0.0586700439453125
1733141835606183400,8.322183349609375,0.019926071166992188,0.0377197265625,0.0008471012115478516
1733141835616218000,8.332218017578125,-0.04763174057006836,0.06462812423706055,-0.05598640441894531
1733141835626258200,8.342258056640626,-0.019960403442382812,0.06737518310546875,-0.08810210227966309
1733141835636299300,8.35229931640625,0.04031848907470703,0.05603504180908203,-0.06794571876525879
1733141835646345500,8.362345458984375,0.08553266525268555,0.021466732025146484,-0.005971670150756836
1733141835656397000,8.37239697265625,0.07826709747314453,0.02052450180053711,0.06436800956726074
1733141835666452700,8.38245263671875,0.05220746994018555,0.02895355224609375,0.11475062370300293
1733141835676483300,8.3924833984375,0.06937694549560547,0.056182861328125,0.12233424186706543
1733141835686519000,8.40251904296875,0.11069154739379883,0.088043212890625,0.08322572708129883
1733141835696559900,8.412559814453125,0.10999011993408203,0.08693695068359375,0.021647930145263672
1733141835706601000,8.42260107421875,0.06773710250854492,0.07691478729248047,0.0036592483520507812
1733141835716647200,8.432647216796875,0.04510927200317383,0.053035736083984375,-0.01890277862548828
1733141835726698200,8.4426982421875,-0.005703449249267578,0.024790287017822266,-0.036757469177246094
1733141835736753200,8.452753173828125,-0.06113100051879883,0.0061969757080078125,-0.05970621109008789
1733141835746811600,8.462811767578126,-0.0647282600402832,0.015861034393310547,-0.054770469665527344
1733141835756872700,8.472872802734376,-0.0356287956237793,0.025231361389160156,-0.040741920471191406
1733141835766935600,8.482935546875,0.02179241180419922,0.0344390869140625,0.0070133209228515625
1733141835776899800,8.49289990234375,0.06062507629394531,0.02035379409790039,0.02673649787902832
1733141835786871800,8.502871826171875,0.05721282958984375,0.030485153198242188,0.02284860610961914
1733141835796854300,8.512854248046875,0.016574382781982422,0.03129100799560547,0.019029855728149414
1733141835806849000,8.52284912109375,-0.018463611602783203,0.027500629425048828,0.005885124206542969
1733141835816857600,8.532857666015625,-0.04851961135864258,0.03305959701538086,-0.0025167465209960938
1733141835826880500,8.542880615234376,-0.040712833404541016,0.028829097747802734,0.027077198028564453
1733141835836918000,8.55291796875,0.009261608123779297,0.02921295166015625,0.0705878734588623
1733141835846965000,8.562965087890625,0.06354713439941406,0.02492237091064453,0.09518933296203613
1733141835857025500,8.573025634765624,0.08936738967895508,0.0021834373474121094,0.04910135269165039
1733141835867098400,8.583098388671875,0.049530982971191406,-0.015085697174072266,-0.019495248794555664
1733141835877177000,8.593177001953125,-0.02214193344116211,-0.04586172103881836,-0.05402565002441406
1733141835887264800,8.6032646484375,-0.10208463668823242,-0.06677675247192383,-0.050153255462646484
1733141835897358800,8.61335888671875,-0.14358758926391602,-0.07352924346923828,-0.03237581253051758
1733141835907441400,8.62344140625,-0.13855648040771484,-0.08085250854492188,-0.015311002731323242
1733141835917527000,8.633527099609376,-0.06418180465698242,-0.06983661651611328,-0.013186454772949219
1733141835927614000,8.643614013671876,0.03207826614379883,-0.06862163543701172,-0.025478124618530273
1733141835937687000,8.65368701171875,0.0609278678894043,-0.057814598083496094,-0.051947832107543945
1733141835947731200,8.663731201171874,-0.004531383514404297,-0.037381649017333984,-0.10186529159545898
1733141835957770500,8.6737705078125,-0.07369422912597656,-0.017102718353271484,-0.16103506088256836
1733141835967810000,8.68381005859375,-0.024211406707763672,-0.025297164916992188,-0.12587785720825195
1733141835977849600,8.693849609375,0.015317440032958984,-0.018796443939208984,-0.12962865829467773
1733141835987889700,8.7038896484375,-0.029900074005126953,-0.02143096923828125,-0.10012030601501465
1733141835997929700,8.7139296875,-0.1354961395263672,-0.03338813781738281,-0.014516115188598633
1733141836007858700,8.723858642578126,-0.24961185455322266,-0.0035066604614257812,0.04192066192626953
1733141836017796900,8.733796875,-0.2409834861755371,0.015139579772949219,0.09801506996154785
1733141836027748000,8.743748046875,-0.08272647857666016,0.009084701538085938,0.09713268280029297
1733141836037715500,8.753715576171874,0.08254432678222656,0.0030946731567382812,0.0402524471282959
1733141836047701200,8.763701171875,0.11913537979125977,0.007306098937988281,-0.005789756774902344
1733141836057707300,8.773707275390626,0.010404109954833984,0.007503986358642578,-0.06957626342773438
1733141836067733800,8.783733642578126,-0.1436305046081543,0.0031042098999023438,-0.11849188804626465
1733141836077780700,8.79378076171875,-0.18764019012451172,-0.0015420913696289062,-0.11553764343261719
1733141836087847200,8.80384716796875,-0.09033393859863281,0.0029006004333496094,-0.07519054412841797
1733141836097931000,8.813930908203124,0.028949737548828125,-0.006976127624511719,-0.03041553497314453
1733141836108025300,8.824025390625,0.10898542404174805,-0.01649188995361328,-0.0002689361572265625
1733141836118132500,8.834132568359376,0.11298942565917969,-0.01144266128540039,0.020453929901123047
1733141836128249000,8.8442490234375,0.060749053955078125,-0.0109710693359375,0.026754379272460938
1733141836138371800,8.854371826171874,-0.000025272369384765625,-0.010455608367919922,-0.00013780593872070312
1733141836148497400,8.864497314453125,-0.045917510986328125,-0.005353450775146484,-0.03617072105407715
1733141836158603800,8.874603759765625,-0.03948163986206055,-0.0050983428955078125,-0.07664990425109863
1733141836168645600,8.884645751953125,-0.028814315795898438,-0.009664535522460938,-0.060315608978271484
1733141836178687200,8.894687255859376,0.01437520980834961,-0.0001277923583984375,-0.035051584243774414
1733141836188729000,8.90472900390625,-0.018301010131835938,-0.009538650512695312,-0.014643669128417969
1733141836198770700,8.914770751953125,-0.0743255615234375,-0.03315114974975586,-0.003998517990112305
1733141836208691700,8.924691650390624,-0.08759641647338867,-0.03322744369506836,0.03951597213745117
1733141836218622500,8.93462255859375,-0.030136585235595703,-0.05722808837890625,0.08304190635681152
1733141836228567000,8.944567138671875,0.017292022705078125,-0.07133913040161133,0.0273745059967041
1733141836238528500,8.954528564453126,-0.015906333923339844,-0.07100296020507812,-0.0648036003112793
1733141836248504800,8.9645048828125,-0.0438232421875,-0.05160093307495117,-0.07595562934875488
1733141836258502700,8.974502685546875,-0.057177066802978516,-0.037061214447021484,-0.0733335018157959
1733141836268523000,8.98452294921875,-0.060461997985839844,-0.022568702697753906,-0.04694771766662598
1733141836278561000,8.99456103515625,-0.15379762649536133,-0.01793193817138672,-0.05926775932312012
1733141836288616000,9.004615966796875,-0.14286088943481445,-0.013668060302734375,-0.0675818920135498
1733141836298691800,9.01469189453125,-0.08058834075927734,0.004582881927490234,-0.05256009101867676
1733141836308786000,9.024785888671875,-0.028119564056396484,0.008646965026855469,-0.032549381256103516
1733141836318895600,9.0348955078125,-0.06543779373168945,-0.010719776153564453,-0.0546872615814209
1733141836329017900,9.045017822265624,-0.12566041946411133,-0.0061492919921875,-0.0906989574432373
1733141836339148300,9.055148193359376,-0.167022705078125,-0.011431217193603516,-0.08928418159484863
1733141836349283600,9.06528369140625,-0.13355636596679688,-0.012465953826904297,-0.05098462104797363
1733141836359419600,9.075419677734375,-0.0777120590209961,-0.009107589721679688,-0.04181361198425293
1733141836369479400,9.0854794921875,-0.00863790512084961,-0.0058193206787109375,-0.013859033584594727
1733141836379402000,9.095402099609375,0.07382392883300781,0.00702667236328125,-0.009692668914794922
1733141836389329200,9.1053291015625,0.12278509140014648,0.01540994644165039,-0.014717578887939453
1733141836399270100,9.115270263671874,0.04473257064819336,0.01023101806640625,-0.07630252838134766
1733141836409228500,9.125228515625,-0.10264015197753906,0.014698982238769531,-0.13245177268981934
1733141836419207200,9.135207275390625,-0.1636371612548828,-0.01428842544555664,-0.12223196029663086
1733141836429207300,9.145207275390625,-0.09726142883300781,-0.04786062240600586,-0.051518917083740234
1733141836439230200,9.155230224609374,-0.03208017349243164,-0.057374000549316406,-0.047944068908691406
1733141836449275100,9.165275146484374,-0.04767799377441406,-0.07610177993774414,-0.015558958053588867
1733141836459341800,9.175341796875,-0.1390838623046875,-0.07127237319946289,0.0017352104187011719
1733141836469428000,9.185427978515625,-0.21610212326049805,-0.02947235107421875,0.008733272552490234
1733141836479531000,9.195531005859374,-0.1234273910522461,0.02478504180908203,0.03498268127441406
1733141836489647900,9.20564794921875,0.08566761016845703,0.03079843521118164,0.03823709487915039
1733141836499775000,9.21577490234375,0.23156404495239258,0.0042819976806640625,0.023926258087158203
1733141836509908700,9.22590869140625,0.20693540573120117,-0.016165733337402344,-0.013451576232910156
1733141836520044800,9.236044921875,0.003802776336669922,-0.026431560516357422,-0.02291083335876465
1733141836530146300,9.246146240234374,-0.14995193481445312,-0.01329803466796875,-0.019238710403442383
1733141836540188200,9.256188232421875,-0.13277006149291992,-0.015116691589355469,-0.016222476959228516
1733141836550108700,9.266108642578125,-0.007721424102783203,-0.03112173080444336,-0.03694939613342285
1733141836560039000,9.276038818359375,0.10138511657714844,-0.037270545959472656,-0.03843331336975098
1733141836569983000,9.28598291015625,0.1483778953552246,-0.005190849304199219,-0.015796184539794922
1733141836579944200,9.295944091796875,0.11544418334960938,0.007914066314697266,0.00708770751953125
1733141836589924900,9.3059248046875,0.041019439697265625,0.0021181106567382812,-0.03143787384033203
1733141836599927000,9.315927001953124,-0.018490314483642578,-0.01782083511352539,-0.08871340751647949
1733141836609951200,9.325951171875,-0.05877828598022461,-0.027968406677246094,-0.13213562965393066
1733141836619997200,9.3359970703125,-0.08016204833984375,-0.00969696044921875,-0.1287980079650879
1733141836630059000,9.34605908203125,-0.03566884994506836,0.017646312713623047,-0.10733628273010254
1733141836640140300,9.356140380859374,0.022356510162353516,0.03994131088256836,-0.08629846572875977
1733141836650238500,9.366238525390624,0.028090953826904297,0.048125267028808594,-0.06578564643859863
1733141836660350700,9.376350830078126,-0.017872333526611328,0.046980857849121094,0.0012669563293457031
1733141836670473700,9.3864736328125,-0.06749153137207031,0.03648996353149414,0.048737525939941406
1733141836680604000,9.39660400390625,-0.06881570816040039,0.021404266357421875,0.08681893348693848
1733141836690737200,9.406737060546876,-0.04595041275024414,0.006676197052001953,0.07797980308532715
1733141836700855300,9.416855224609375,-0.0135498046875,-0.007761478424072266,0.08890938758850098
1733141836710897000,9.42689697265625,0.023673057556152344,-0.0075626373291015625,0.04829001426696777
1733141836720938500,9.4369384765625,0.008868217468261719,-0.0024132728576660156,-0.029257774353027344
1733141836730861800,9.44686181640625,-0.019968032836914062,0.012157917022705078,-0.07774543762207031
1733141836740794400,9.45679443359375,-0.006237030029296875,0.0405426025390625,-0.08337759971618652
1733141836750740500,9.466740478515625,0.02619028091430664,0.06859731674194336,-0.08445429801940918
1733141836760698400,9.476698486328125,0.04899740219116211,0.06802654266357422,-0.02394866943359375
1733141836770676200,9.48667626953125,0.04826498031616211,0.06759881973266602,-0.006502866744995117
1733141836780675000,9.496675048828125,0.0429997444152832,0.048444271087646484,0.005937099456787109
1733141836790696400,9.506696533203124,0.04261636734008789,0.043768882751464844,0.027671098709106445
1733141836800739800,9.51673974609375,0.03772544860839844,0.025088787078857422,0.011570453643798828
1733141836810804500,9.526804443359374,0.00010538101196289062,0.025585174560546875,-0.01814889907836914
1733141836820888600,9.536888671875,-0.013134002685546875,0.030834674835205078,-0.0518648624420166
1733141836830989800,9.54698974609375,-0.04504871368408203,0.031202316284179688,-0.056615591049194336
1733141836841104600,9.557104736328125,-0.09079170227050781,0.036136627197265625,-0.028336524963378906
1733141836851230000,9.56722998046875,-0.05142021179199219,0.04533529281616211,-0.0003337860107421875
1733141836861357300,9.577357421875,0.020235061645507812,0.0261077880859375,-0.0011167526245117188
1733141836871487700,9.58748779296875,0.029686927795410156,0.04981422424316406,-0.01618218421936035
1733141836881605600,9.597605712890624,0.010866641998291016,0.06841421127319336,-0.05427670478820801
1733141836891647500,9.6076474609375,0.06768035888671875,0.03491353988647461,-0.030681371688842773
1733141836901568800,9.61756884765625,0.07693052291870117,0.021136760711669922,-0.016894102096557617
1733141836911497500,9.62749755859375,0.016061782836914062,-0.011176109313964844,0.007135868072509766
1733141836921440000,9.63743994140625,-0.07676029205322266,-0.0808415412902832,-0.0016396045684814453
1733141836931400000,9.64739990234375,-0.15499210357666016,-0.07903146743774414,-0.020686864852905273
1733141836941379800,9.6573798828125,-0.1864943504333496,-0.045084476470947266,0.011592626571655273
1733141836951376100,9.667376220703124,-0.05353116989135742,-0.0075054168701171875,0.005343914031982422
1733141836961395200,9.677395263671874,0.1200861930847168,0.006064414978027344,-0.005139350891113281
1733141836971437000,9.68743701171875,0.17465829849243164,0.006018638610839844,0.02313375473022461
1733141836981500700,9.697500732421876,0.0737619400024414,-0.012373924255371094,0.04178333282470703
1733141836991584000,9.707583984375,-0.03519153594970703,-0.016404151916503906,0.022077322006225586
1733141837001685000,9.71768505859375,-0.04422950744628906,-0.025436878204345703,-0.002530813217163086
1733141837011800600,9.727800537109376,-0.011181831359863281,-0.04873800277709961,0.010909318923950195
1733141837021927200,9.73792724609375,0.04495429992675781,-0.024576187133789062,0.010242462158203125
1733141837032060700,9.748060791015625,0.04872751235961914,-0.010050773620605469,-0.009064674377441406
1733141837042153700,9.75815380859375,-0.00880575180053711,0.0042629241943359375,-0.03284311294555664
1733141837052249600,9.76824951171875,-0.04202127456665039,0.008898735046386719,-0.037685394287109375
1733141837062345700,9.778345703125,-0.06579971313476562,-0.015022754669189453,-0.019277572631835938
1733141837072398300,9.7883984375,-0.06122922897338867,-0.010386943817138672,-0.020288705825805664
1733141837082439400,9.798439453125,-0.02843618392944336,0.008306026458740234,-0.011804819107055664
1733141837092361700,9.80836181640625,-0.014340877532958984,0.02689981460571289,-0.00751042366027832
1733141837102293800,9.818293701171875,-0.028209686279296875,0.035916805267333984,0.011385917663574219
1733141837112237000,9.828237060546876,-0.055718421936035156,0.05419921875,0.039876699447631836
1733141837122197500,9.838197509765624,-0.08300113677978516,0.04379701614379883,0.06778836250305176
1733141837132172500,9.848172607421875,-0.0915994644165039,0.028411865234375,0.06237077713012695
1733141837142169300,9.85816943359375,-0.07685279846191406,-0.0012135505676269531,0.029134273529052734
1733141837152184000,9.86818408203125,-0.04364490509033203,-0.006989955902099609,-0.04093337059020996
1733141837162221600,9.8782216796875,-0.03469228744506836,-0.01746845245361328,-0.07687878608703613
1733141837172276500,9.8882763671875,-0.01187896728515625,-0.02774333953857422,-0.08896851539611816
1733141837182347500,9.898347412109375,0.005727291107177734,-0.023769855499267578,-0.07735490798950195
1733141837192433200,9.90843310546875,0.008707523345947266,-0.010550975799560547,-0.08012151718139648
1733141837202535400,9.918535400390626,-0.03088665008544922,-0.016397953033447266,-0.07363748550415039
1733141837212647000,9.92864697265625,-0.02316761016845703,-0.012945175170898438,-0.025079965591430664
1733141837222769000,9.938768798828125,0.002974987030029297,-0.005010128021240234,0.01790618896484375
1733141837232893000,9.948892822265625,0.038210391998291016,0.002780437469482422,0.046268463134765625
1733141837243020500,9.9590205078125,0.06383085250854492,0.010539054870605469,0.046337127685546875
1733141837253147400,9.9691474609375,0.04248476028442383,0.009020328521728516,0.008990049362182617
1733141837263190000,9.97918994140625,0.01676464080810547,0.021732330322265625,-0.013830900192260742
1733141837273231000,9.989231201171876,-0.008609771728515625,0.03420877456665039,-0.03164315223693848
1733141837283272200,9.999272216796875,-0.024448871612548828,0.0322422981262207,-0.030588150024414062
1733141837293313500,10.0093134765625,-0.025958538055419922,0.020971298217773438,-0.025193452835083008
1733141837303354600,10.019354736328125,-0.03690290451049805,0.024075031280517578,-0.024815797805786133
1733141837313396000,10.02939599609375,-0.00952291488647461,0.04150819778442383,-0.010177373886108398
1733141837323437300,10.039437255859376,0.0180511474609375,0.02599811553955078,-0.01906728744506836
1733141837333362700,10.04936279296875,0.0034995079040527344,0.025351524353027344,-0.01837015151977539
1733141837343297500,10.059297607421875,0.041596412658691406,0.02503681182861328,0.015454292297363281
1733141837353245700,10.06924560546875,0.05646371841430664,0.020630359649658203,0.0016334056854248047
1733141837363210200,10.079210205078125,-0.04144001007080078,0.054418087005615234,-0.054570913314819336
1733141837373193700,10.08919384765625,-0.07683372497558594,0.07796478271484375,-0.057970285415649414
1733141837383197700,10.09919775390625,0.024951457977294922,0.03999137878417969,-0.038138389587402344
1733141837393223200,10.10922314453125,0.036110877990722656,0.031113147735595703,-0.0511021614074707
1733141837403269400,10.119269287109375,-0.0043792724609375,0.0036554336547851562,-0.03997159004211426
1733141837413335800,10.129335693359375,-0.08229351043701172,-0.047011375427246094,-0.024744749069213867
1733141837423420400,10.13942041015625,-0.16941165924072266,-0.04555988311767578,-0.043181419372558594
1733141837433520600,10.149520751953125,-0.14804363250732422,-0.0497279167175293,-0.014138460159301758
1733141837443633700,10.159633544921874,0.05206441879272461,-0.054056644439697266,-0.03191804885864258
1733141837453756000,10.169755859375,0.15558147430419922,-0.04365682601928711,-0.07736730575561523
1733141837463879400,10.17987939453125,0.10268449783325195,-0.01391744613647461,-0.08010411262512207
1733141837474005200,10.190005126953125,0.003528118133544922,0.01073598861694336,-0.01723027229309082
1733141837484107500,10.200107421875,-0.06628179550170898,0.02053976058959961,0.025561094284057617
1733141837494148900,10.21014892578125,-0.06480264663696289,0.03920793533325195,-0.0029129981994628906
1733141837504190200,10.220190185546874,-0.011691570281982422,0.03384065628051758,-0.03545737266540527
1733141837514208500,10.23020849609375,0.026762008666992188,0.024010181427001953,-0.06723999977111816
1733141837524228400,10.240228271484375,0.027105331420898438,0.024017333984375,-0.09879612922668457
1733141837534251000,10.2502509765625,0.022815227508544922,0.019516944885253906,-0.07841897010803223
1733141837544277200,10.26027734375,0.04225921630859375,0.005868434906005859,-0.011628150939941406
1733141837554307000,10.27030712890625,0.04729175567626953,-0.021576881408691406,0.016143083572387695
1733141837564341200,10.28034130859375,0.07621145248413086,-0.019996166229248047,0.010390043258666992
1733141837574379000,10.29037890625,0.0863032341003418,-0.008602619171142578,-0.009649991989135742
1733141837584419000,10.300419189453125,0.040198326110839844,0.0029630661010742188,-0.04828667640686035
1733141837594459400,10.31045947265625,0.009257793426513672,0.02858448028564453,-0.029585838317871094
1733141837604487700,10.32048779296875,-0.04962730407714844,0.006443500518798828,-0.025054216384887695
1733141837614516500,10.3305166015625,-0.1271357536315918,-0.006316184997558594,-0.03026437759399414
1733141837624546000,10.340546142578125,-0.1573033332824707,-0.028913021087646484,-0.030866146087646484
1733141837634577400,10.350577392578124,-0.12663602828979492,-0.04237079620361328,-0.026581287384033203
1733141837644610300,10.3606103515625,-0.08272409439086914,-0.0653223991394043,-0.026944398880004883
1733141837654650400,10.370650390625,-0.04899024963378906,-0.06916284561157227,-0.008182287216186523
1733141837664692200,10.380692138671876,-0.04874992370605469,-0.05872631072998047,0.0007092952728271484
1733141837674739200,10.3907392578125,-0.03447723388671875,-0.029594898223876953,-0.009636878967285156
1733141837684788000,10.4007880859375,-0.010778427124023438,-0.0007305145263671875,-0.038819074630737305
1733141837694837800,10.410837646484374,-0.005784034729003906,-0.009762287139892578,-0.039029836654663086
1733141837704888300,10.420888427734376,-0.01925802230834961,0.00516510009765625,-0.043814897537231445
1733141837714939100,10.430939208984375,-0.027496814727783203,0.029296398162841797,-0.0009458065032958984
1733141837724988000,10.44098779296875,-0.011719703674316406,0.038916587829589844,0.04172921180725098
1733141837735040500,10.45104052734375,-0.010301589965820312,0.05300331115722656,0.05572819709777832
1733141837745095700,10.461095703125,-0.013814449310302734,0.04307126998901367,0.05563855171203613
1733141837755137500,10.471137451171876,-0.0408024787902832,0.033238887786865234,0.018082857131958008
1733141837765154600,10.481154541015625,-0.06249666213989258,0.004774570465087891,-0.0375826358795166
1733141837775172600,10.491172607421875,-0.06008481979370117,0.0005340576171875,-0.08308959007263184
1733141837785197300,10.501197265625,-0.0011262893676757812,-0.00817108154296875,-0.08582353591918945
1733141837795224000,10.51122412109375,0.03844928741455078,-0.021079540252685547,-0.06043863296508789
1733141837805258500,10.521258544921874,0.058965206146240234,-0.0052013397216796875,-0.03079390525817871
1733141837815299000,10.531299072265625,0.060657501220703125,-0.0035009384155273438,-0.020432233810424805
1733141837825343200,10.54134326171875,0.019945144653320312,0.012420654296875,-0.019940614700317383
1733141837835389700,10.5513896484375,0.007975578308105469,0.0186309814453125,-0.005626201629638672
1733141837845438200,10.561438232421875,0.04300117492675781,0.01520681381225586,-0.0012466907501220703
1733141837855488500,10.571488525390626,0.05382108688354492,-0.011719703674316406,-0.006471395492553711
1733141837865540000,10.5815400390625,0.017441749572753906,-0.00974130630493164,-0.04965472221374512
1733141837875592400,10.591592529296875,-0.0702366828918457,0.006343841552734375,-0.10641765594482422
1733141837885645000,10.60164501953125,-0.03433656692504883,-0.029895305633544922,-0.04448676109313965
1733141837895697700,10.61169775390625,0.09078407287597656,-0.0606842041015625,0.011893510818481445
1733141837905754600,10.621754638671876,0.08303594589233398,-0.07633495330810547,-0.04501676559448242
1733141837915779300,10.631779296875,-0.05627107620239258,-0.09619760513305664,-0.030558109283447266
1733141837925809700,10.6418095703125,-0.227447509765625,-0.07858705520629883,-0.021765947341918945
1733141837935840800,10.6518408203125,-0.27541399002075195,-0.053195953369140625,0.04321932792663574
1733141837945878000,10.6618779296875,-0.11203813552856445,-0.038761138916015625,0.05568289756774902
1733141837955916500,10.67191650390625,0.0629420280456543,-0.038840293884277344,0.02157139778137207
1733141837965961200,10.681961181640625,0.0899209976196289,-0.010210990905761719,-0.02084207534790039
1733141837976006700,10.692006591796876,-0.0010042190551757812,0.02301788330078125,-0.04411792755126953
1733141837986057700,10.7020576171875,-0.09076642990112305,0.03208208084106445,-0.04394650459289551
1733141837996108800,10.71210888671875,-0.09942388534545898,0.03603363037109375,-0.05339360237121582
1733141838006156800,10.72215673828125,-0.028013229370117188,0.016193389892578125,-0.04838395118713379
1733141838016196600,10.732196533203124,0.056595802307128906,0.006127357482910156,-0.05717754364013672
1733141838026236700,10.742236572265625,0.064605712890625,0.010527610778808594,-0.05651259422302246
1733141838036276700,10.75227685546875,0.03957986831665039,0.010313034057617188,-0.027922391891479492
1733141838046317000,10.762317138671875,0.02932262420654297,0.024400711059570312,-0.00457453727722168
1733141838056357600,10.772357666015624,0.0103759765625,0.024335861206054688,-0.0047304630279541016
1733141838066403000,10.782403076171875,-0.0265655517578125,0.01983642578125,-0.028219223022460938
1733141838076453400,10.792453369140626,-0.043701171875,0.010811805725097656,-0.03214144706726074
1733141838086507800,10.8025078125,-0.05123472213745117,-0.002883434295654297,0.011223316192626953
1733141838096531500,10.812531494140625,-0.030910968780517578,0.0022177696228027344,0.01595473289489746
1733141838106560500,10.822560546875,-0.054067134857177734,-0.01659679412841797,0.020001649856567383
1733141838116595500,10.832595458984375,-0.10601139068603516,-0.021350383758544922,0.01395273208618164
1733141838126631400,10.84263134765625,-0.12004613876342773,-0.031096458435058594,0.021944522857666016
1733141838136673300,10.85267333984375,-0.11510276794433594,-0.04090595245361328,-0.021578311920166016
1733141838146720800,10.862720703125,-0.08172893524169922,-0.06942176818847656,-0.054430484771728516
1733141838156773600,10.872773681640625,-0.029699325561523438,-0.09252643585205078,-0.07725739479064941
1733141838166831000,10.8828310546875,-0.01598501205444336,-0.08198738098144531,-0.07176852226257324
1733141838176892400,10.892892333984374,-0.0543818473815918,-0.06685304641723633,-0.03838086128234863
1733141838186956500,10.90295654296875,-0.08781862258911133,-0.04745149612426758,-0.024587392807006836
1733141838196946700,10.91294677734375,-0.1213827133178711,-0.03814506530761719,-0.025451183319091797
1733141838206943700,10.92294384765625,-0.10793638229370117,-0.019981861114501953,-0.002828359603881836
1733141838216949000,10.932948974609374,-0.04783916473388672,-0.02592182159423828,0.005530595779418945
1733141838226964000,10.9429638671875,-0.016721725463867188,-0.01286458969116211,0.00471186637878418
1733141838236989200,10.9529892578125,0.02366352081298828,-0.009222984313964844,-0.01488351821899414
1733141838247019800,10.963019775390626,0.04528093338012695,-0.009854316711425781,-0.0577085018157959
1733141838257061000,10.97306103515625,0.024662017822265625,-0.005343914031982422,-0.08116865158081055
1733141838267112700,10.98311279296875,-0.0000247955322265625,-0.0005688667297363281,-0.08578038215637207
1733141838277173800,10.993173828125,-0.01931142807006836,0.013773918151855469,-0.052738189697265625
1733141838287243000,11.003242919921876,-0.0005273818969726562,0.018456459045410156,-0.020137310028076172
1733141838297319400,11.0133193359375,0.018342018127441406,0.032648563385009766,-0.0066492557525634766
1733141838307400700,11.023400634765625,0.03766632080078125,0.04222440719604492,0.04008841514587402
1733141838317485600,11.033485595703125,0.019582748413085938,0.02821636199951172,0.053815603256225586
1733141838327572000,11.043572021484374,-0.012098312377929688,0.014467239379882812,0.048829078674316406
1733141838337651000,11.05365087890625,-0.015288352966308594,-0.013406753540039062,0.02042555809020996
1733141838347694000,11.063694091796876,-0.02345561981201172,-0.05038118362426758,-0.01240992546081543
1733141838357735000,11.07373486328125,-0.022620201110839844,-0.06797504425048828,-0.06905221939086914
1733141838367775700,11.083775634765624,-0.04577445983886719,-0.04749774932861328,-0.12105774879455566
1733141838377816300,11.09381640625,-0.06421470642089844,-0.032167911529541016,-0.1349480152130127
1733141838387857200,11.103857177734374,0.04455995559692383,-0.05019664764404297,-0.0498659610748291
1733141838397781200,11.11378125,0.1663517951965332,-0.0439915657043457,-0.027205228805541992
1733141838407714600,11.123714599609375,0.11774730682373047,-0.07512187957763672,-0.008627653121948242
1733141838417661400,11.133661376953125,-0.06676530838012695,-0.08686304092407227,-0.014160633087158203
1733141838427625200,11.143625244140624,-0.18394947052001953,-0.07576894760131836,-0.00606989860534668
1733141838437608000,11.15360791015625,-0.09833383560180664,-0.05185127258300781,0.0583343505859375
1733141838447606500,11.1636064453125,0.046460628509521484,-0.05242156982421875,0.06071901321411133
1733141838457627000,11.173626953125,0.08541584014892578,-0.038831233978271484,0.03515124320983887
1733141838467669200,11.183669189453125,0.039051055908203125,-0.006603240966796875,-0.013356447219848633
1733141838477732400,11.193732421875,-0.05386924743652344,0.03918790817260742,-0.056648969650268555
1733141838487814700,11.203814697265624,-0.04699230194091797,0.06513023376464844,-0.08566880226135254
1733141838497909000,11.213908935546876,0.053904056549072266,0.07176971435546875,-0.07188987731933594
1733141838508018000,11.224017822265624,0.172607421875,0.059815406799316406,-0.048727989196777344
1733141838518137600,11.2341376953125,0.1963496208190918,0.03930091857910156,-0.0443568229675293
1733141838528264700,11.2442646484375,0.14976263046264648,0.02422618865966797,-0.025650501251220703
1733141838538395600,11.254395751953124,0.09037971496582031,0.047423362731933594,-0.0024352073669433594
1733141838548406300,11.26440625,0.03226041793823242,0.03744363784790039,0.010953426361083984
1733141838558423000,11.274423095703124,0.026990890502929688,0.04192209243774414,0.004947662353515625
1733141838568446500,11.284446533203125,0.0031137466430664062,0.03235197067260742,-0.015254735946655273
1733141838578477000,11.29447705078125,-0.02043294906616211,0.03241872787475586,-0.01654982566833496
1733141838588515300,11.304515380859375,-0.020309925079345703,0.06061744689941406,-0.017961740493774414
1733141838598556000,11.314555908203126,0.017333984375,0.05051755905151367,0.013709545135498047
1733141838608603600,11.324603759765624,-0.016263484954833984,0.03587007522583008,0.030829429626464844
1733141838618658000,11.334657958984375,-0.058867454528808594,0.030864715576171875,0.03804826736450195
1733141838628718600,11.344718505859374,-0.030200481414794922,0.006959438323974609,0.04533839225769043
1733141838638779000,11.35477880859375,-0.03455066680908203,0.002376556396484375,0.015393972396850586
1733141838648843500,11.364843505859374,0.00881338119506836,-0.039710044860839844,0.010161638259887695
1733141838658911000,11.374910888671875,0.009491443634033203,-0.03845643997192383,-0.018399953842163086
1733141838668906800,11.38490673828125,-0.04654884338378906,-0.037119388580322266,-0.05179452896118164
1733141838678909200,11.3949091796875,-0.08358430862426758,-0.021943092346191406,-0.061731576919555664
1733141838688919600,11.40491943359375,-0.07794809341430664,-0.011869430541992188,-0.03406047821044922
1733141838698938600,11.414938720703125,-0.05826568603515625,0.00263214111328125,0.0076100826263427734
1733141838708967200,11.42496728515625,-0.07196331024169922,0.016722679138183594,0.034780263900756836
1733141838719005400,11.43500537109375,-0.06674623489379883,0.016280651092529297,0.06637215614318848
1733141838729053000,11.445052978515625,-0.01874828338623047,0.03002786636352539,0.08872747421264648
1733141838739104800,11.455104736328124,-0.055910587310791016,0.0011649131774902344,0.045496225357055664
1733141838749164800,11.465164794921876,-0.09241437911987305,0.0010247230529785156,0.012545108795166016
1733141838759232000,11.47523193359375,-0.06714773178100586,-0.03217601776123047,-0.010350704193115234
1733141838769300200,11.48530029296875,-0.04701375961303711,-0.04607105255126953,-0.042038679122924805
1733141838779373000,11.495373046875,-0.07450103759765625,-0.05039691925048828,-0.06856846809387207
1733141838789449000,11.505448974609376,-0.07375526428222656,-0.0453639030456543,-0.09046816825866699
1733141838799526700,11.515526611328125,-0.06417512893676758,-0.03115081787109375,-0.09376406669616699
1733141838809604900,11.52560498046875,-0.031311988830566406,-0.003036022186279297,-0.06895995140075684
1733141838819532300,11.5355322265625,-0.0034809112548828125,0.005806446075439453,-0.03955507278442383
1733141838829469200,11.54546923828125,0.005362510681152344,0.00984334945678711,0.003926753997802734
1733141838839419400,11.55541943359375,0.032901763916015625,0.004420280456542969,0.046602725982666016
1733141838849385700,11.5653857421875,0.05505990982055664,-0.015106678009033203,0.05066251754760742
1733141838859370800,11.575370849609374,0.0014972686767578125,-0.005884647369384766,-0.0211031436920166
1733141838869371100,11.58537109375,-0.08453369140625,0.017194271087646484,-0.06847476959228516
1733141838879392800,11.595392822265625,0.000040531158447265625,0.0018763542175292969,-0.020727157592773438
1733141838889435400,11.605435302734374,0.08855152130126953,-0.022287845611572266,-0.025324106216430664
1733141838899498500,11.61549853515625,0.0024366378784179688,-0.045561790466308594,-0.0573422908782959
1733141838909580000,11.625580078125,-0.1862354278564453,-0.07798051834106445,-0.032622575759887695
1733141838919678000,11.635677978515625,-0.3123502731323242,-0.04015350341796875,0.01926398277282715
1733141838929789200,11.6457890625,-0.1885089874267578,-0.027788162231445312,0.11285090446472168
1733141838939910700,11.65591064453125,0.05541276931762695,-0.0114898681640625,0.10688662528991699
1733141838950038500,11.66603857421875,0.2355327606201172,0.005223751068115234,0.06890106201171875
1733141838960169000,11.6761689453125,0.21196413040161133,0.022739410400390625,0.022593975067138672
1733141838970278700,11.686278564453126,0.03427743911743164,0.040576934814453125,0.0006630420684814453
1733141838980320000,11.696320068359375,-0.098388671875,0.039144039154052734,-0.030585289001464844
1733141838990360800,11.70636083984375,-0.0695028305053711,0.04672574996948242,-0.07106375694274902
1733141839000401700,11.716401611328125,0.024600982666015625,0.03051614761352539,-0.08747601509094238
1733141839010442500,11.7264423828125,0.06532812118530273,0.01471710205078125,-0.10397100448608398
1733141839020483600,11.736483642578126,0.03461122512817383,0.013460159301757812,-0.07836699485778809
1733141839030524700,11.746524658203125,0.013797760009765625,0.016995906829833984,-0.039276838302612305
1733141839040566000,11.75656591796875,0.03610038757324219,0.02537822723388672,-0.019547700881958008
1733141839050607400,11.766607421875,0.08736753463745117,0.020032405853271484,-0.009133338928222656
1733141839060649000,11.77664892578125,0.08233880996704102,0.010664939880371094,0.0061452388763427734
1733141839070690800,11.78669091796875,0.030832767486572266,0.030071258544921875,0.011775732040405273
1733141839080732700,11.796732666015625,0.003590106964111328,0.04441261291503906,-0.0017216205596923828
1733141839090774500,11.8067744140625,0.04242563247680664,0.053555965423583984,-0.010200023651123047
1733141839100816600,11.816816650390624,0.03810834884643555,0.0435338020324707,-0.02768421173095703
1733141839110858800,11.826858642578125,-0.027727603912353516,0.019435882568359375,-0.021648645401000977
1733141839120901000,11.836901123046875,-0.05094766616821289,0.004810333251953125,-0.0163419246673584
1733141839130943200,11.846943115234374,-0.03646087646484375,-0.005023479461669922,-0.025475502014160156
1733141839140985300,11.8569853515625,-0.01283884048461914,-0.010062217712402344,-0.03432106971740723
1733141839151027700,11.86702783203125,0.01084136962890625,-0.01950979232788086,-0.023956775665283203
1733141839161069600,11.877069580078125,0.006327152252197266,-0.023821353912353516,-0.027787208557128906
1733141839171111200,11.887111083984376,-0.0547642707824707,-0.01854848861694336,-0.022598743438720703
1733141839181153000,11.897153076171875,-0.06795310974121094,-0.01353311538696289,-0.0033066272735595703
1733141839191194600,11.907194580078125,-0.0668339729309082,0.0007119178771972656,0.020593643188476562
1733141839201236500,11.917236572265624,-0.05161619186401367,-0.009005546569824219,0.020978689193725586
1733141839211278000,11.927278076171875,-0.01777791976928711,0.004934787750244141,0.021577835083007812
1733141839221319700,11.937319580078125,-0.012687206268310547,0.009275436401367188,0.012744665145874023
1733141839231361300,11.947361328125,-0.031064510345458984,0.008857250213623047,-0.00040531158447265625
1733141839241403100,11.957403076171875,-0.03496503829956055,-0.010423660278320312,-0.027333974838256836
1733141839251325200,11.9673251953125,-0.02469348907470703,-0.019951820373535156,-0.04917430877685547
1733141839261257000,11.977257080078125,0.013501644134521484,-0.029227256774902344,-0.07593250274658203
1733141839271202300,11.987202392578125,0.037055015563964844,-0.014542102813720703,-0.0838623046875
1733141839281164500,11.99716455078125,0.0084991455078125,-0.018807411193847656,-0.07771658897399902
1733141839291146200,12.007146240234375,-0.03831958770751953,-0.018093109130859375,-0.0626072883605957
1733141839301149000,12.01714892578125,-0.06584930419921875,-0.017552852630615234,-0.038491249084472656
1733141839311173000,12.027173095703125,-0.04120349884033203,-0.012389659881591797,-0.033596038818359375
1733141839321219000,12.037218994140625,-0.017021656036376953,-0.007367134094238281,-0.03815102577209473
1733141839331285500,12.047285400390624,0.011271476745605469,0.006915092468261719,-0.01450204849243164
1733141839341370600,12.05737060546875,0.06749629974365234,0.025720596313476562,0.004151821136474609
1733141839351472000,12.06747216796875,0.0431513786315918,0.01632547378540039,-0.024834632873535156
1733141839361586700,12.077586669921875,-0.06541061401367188,0.04508209228515625,-0.07741832733154297
1733141839371711000,12.0877109375,-0.09299945831298828,0.03046894073486328,-0.006970643997192383
1733141839381841400,12.09784130859375,0.06345987319946289,0.011333465576171875,-0.008475303649902344
1733141839391974000,12.107973876953125,0.11980485916137695,0.007281780242919922,-0.01852107048034668
1733141839402023000,12.11802294921875,-0.026179790496826172,-0.015120983123779297,0.005570888519287109
1733141839412073700,12.12807373046875,-0.2078409194946289,-0.009131908416748047,0.019758224487304688
1733141839422125600,12.13812548828125,-0.30820131301879883,0.00036907196044921875,0.042859792709350586
1733141839432178000,12.148177978515625,-0.17781686782836914,0.017891883850097656,0.046926021575927734
1733141839442230800,12.158230712890624,0.09667778015136719,0.011477470397949219,0.013923168182373047
1733141839452159000,12.168158935546876,0.22208309173583984,0.005861759185791016,-0.027067184448242188
1733141839462096400,12.178096435546875,0.12053108215332031,-0.008295059204101562,-0.05310559272766113
1733141839472046800,12.188046875,-0.050060272216796875,-0.007998466491699219,-0.06963896751403809
1733141839482013700,12.198013671875,-0.12479209899902344,-0.0223236083984375,-0.10560941696166992
1733141839491999000,12.2079990234375,-0.0768585205078125,-0.03218984603881836,-0.08975577354431152
1733141839501999600,12.21799951171875,0.04057455062866211,-0.03260469436645508,-0.0603337287902832
1733141839512021000,12.22802099609375,0.10932588577270508,-0.03276538848876953,-0.03137636184692383
1733141839522063400,12.2380634765625,0.13083267211914062,0.009878158569335938,-0.0068721771240234375
1733141839532121900,12.248121826171875,0.07747554779052734,0.04285621643066406,-0.015453577041625977
1733141839542199300,12.25819921875,-0.003127574920654297,0.03782081604003906,-0.010143041610717773
1733141839552288500,12.26828857421875,-0.021404266357421875,0.0234222412109375,0.004088640213012695
1733141839562392300,12.278392333984375,-0.006321430206298828,-0.00001811981201171875,-0.0010099411010742188
1733141839572502500,12.28850244140625,0.008474349975585938,0.005254268646240234,0.0031783580780029297
1733141839582621200,12.29862109375,0.023100852966308594,0.0011572837829589844,-0.007085561752319336
1733141839592739800,12.30873974609375,0.028031349182128906,0.025424957275390625,-0.0031843185424804688
1733141839602860300,12.3188603515625,-0.009520530700683594,0.025702953338623047,0.033713340759277344
1733141839612825600,12.32882568359375,-0.060648441314697266,0.02113628387451172,0.07494068145751953
