time,seconds_elapsed,z,y,x
1733141827421792500,0.13779248046875,-0.8512543439865112,-0.34779858589172363,0.09041165560483932
1733141827431832300,0.147832275390625,-0.8406019806861877,-0.306254506111145,0.232087641954422
1733141827441894000,0.157893798828125,-0.8267539739608765,-0.2540580630302429,0.33008909225463867
1733141827451975200,0.16797509765625,-0.8192973732948303,-0.21570968627929688,0.38441595435142517
1733141827462074000,0.17807421875,-0.8203625679016113,-0.1805569976568222,0.4131772518157959
1733141827472186600,0.1881865234375,-0.8075798153877258,-0.20825305581092834,0.4248948097229004
1733141827482310100,0.19831005859375,-0.7798837423324585,-0.3499290347099304,0.4035901725292206
1733141827492437000,0.20843701171875,-0.7415353655815125,-0.4703003764152527,0.3471328020095825
1733141827502543400,0.21854345703125,-0.6776213645935059,-0.5693670511245728,0.26724034547805786
1733141827512584200,0.228584228515625,-0.6083812117576599,-0.6737598776817322,0.16497796773910522
1733141827522629600,0.238629638671875,-0.5210320949554443,-0.7121082544326782,0.08082455396652222
1733141827532667600,0.248667724609375,-0.3889431953430176,-0.5853455662727356,0.030758604407310486
1733141827542710500,0.25871044921875,-0.20785360038280487,-0.37975558638572693,0.021171506494283676
1733141827552751000,0.268751220703125,-0.0063913981430232525,-0.222101092338562,0.048867564648389816
1733141827562796300,0.27879638671875,0.1278279572725296,-0.20718781650066376,0.10852061212062836
1733141827572834600,0.28883447265625,0.16617634892463684,-0.32329821586608887,0.19267402589321136
1733141827582877700,0.298877685546875,0.11291470378637314,-0.413843035697937,0.3066539466381073
1733141827592917800,0.308917724609375,-0.009587096981704235,-0.45112618803977966,0.45152565836906433
1733141827602962700,0.318962646484375,-0.1524614691734314,-0.5001268982887268,0.6059844493865967
1733141827613012000,0.329011962890625,-0.25046291947364807,-0.5299534201622009,0.7508561015129089
1733141827623065600,0.339065673828125,-0.27602851390838623,-0.5608451962471008,0.8584446907043457
1733141827633122300,0.349122314453125,-0.23128871619701385,-0.6567161679267883,0.9053149223327637
1733141827643181800,0.359181884765625,-0.16098333895206451,-0.859110414981842,0.8882712125778198
1733141827653243400,0.369243408203125,-0.13328728079795837,-1.1445928812026978,0.7902697324752808
1733141827663305700,0.3793056640625,-0.17696183919906616,-1.4918588399887085,0.6283543109893799
1733141827673368000,0.3893681640625,-0.2557890713214874,-1.8018416166305542,0.41850343346595764
1733141827683413200,0.399413330078125,-0.5029231309890747,-0.4766917824745178,0.6251586079597473
1733141827693454000,0.4094541015625,-1.074953317642212,1.1830744743347168,1.1641665697097778
1733141827703495200,0.4194951171875,-1.3700227737426758,-1.0849398374557495,0.7806826233863831
1733141827713536300,0.429536376953125,-1.39984929561615,-1.5099678039550781,0.5058525204658508
1733141827723577300,0.439577392578125,-1.4254149198532104,-1.4311405420303345,0.3503285050392151
1733141827733618400,0.449618408203125,-1.3029131889343262,-1.2947907447814941,0.2310224175453186
1733141827743659800,0.45965966796875,-1.1133016347885132,-1.5046416521072388,0.06910699605941772
1733141827753701400,0.469701416015625,-0.9279510974884033,-1.5003807544708252,-0.10239552706480026
1733141827763743000,0.479742919921875,-0.745796263217926,-1.1595062017440796,-0.19933173060417175
1733141827773784800,0.489784912109375,-0.5700328350067139,-1.0093083381652832,-0.26324570178985596
1733141827783826700,0.49982666015625,-0.4816184937953949,-0.9315462708473206,-0.34739911556243896
1733141827793868500,0.50986865234375,-0.48694464564323425,-0.8697627782821655,-0.4624442756175995
1733141827803910700,0.51991064453125,-0.4592485725879669,-0.843131959438324,-0.5508586168289185
1733141827813952800,0.529952880859375,-0.3516600430011749,-0.7760222554206848,-0.5636414289474487
1733141827823995100,0.5399951171875,-0.22809302806854248,-0.9698946475982666,-0.6254249215126038
1733141827834037200,0.550037353515625,-0.13435252010822296,-1.2340724468231201,-0.7521876692771912
1733141827844079600,0.56007958984375,0.0021304660476744175,-1.6473828554153442,-0.8331453800201416
1733141827854121700,0.570121826171875,0.1395455300807953,-1.816754937171936,-0.8864070177078247
1733141827864163600,0.58016357421875,0.23009033501148224,-2.025540590286255,-0.914103090763092
1733141827874205400,0.590205322265625,0.33661362528800964,-2.2694790363311768,-0.8363410830497742
1733141827884246800,0.600246826171875,0.3493964374065399,-2.1533684730529785,-0.6105116605758667
1733141827894288100,0.6102880859375,0.16191542148590088,-1.4503147602081299,-0.26537618041038513
1733141827904329500,0.62032958984375,-0.20678836107254028,-0.306254506111145,0.18521739542484283
1733141827914371000,0.63037109375,-0.5860112905502319,0.7227606177330017,0.5846797823905945
1733141827924412700,0.64041259765625,-0.7969274520874023,1.0328766107559204,0.8382052183151245
1733141827934454300,0.650454345703125,-0.7830794453620911,0.558714747428894,0.9255543351173401
1733141827944469800,0.6604697265625,-0.6914693713188171,0.24234052002429962,1.0405994653701782
1733141827954469400,0.670469482421875,-0.4901403486728668,-0.22955772280693054,1.2845379114151
1733141827964468700,0.68046875,-0.2920069992542267,-0.14753477275371552,1.501845359802246
1733141827974469600,0.6904697265625,-0.1205044835805893,0.1059906855225563,1.4358009099960327
1733141827984473300,0.700473388671875,0.06071828305721283,-0.09214265644550323,1.20997154712677
1733141827994481400,0.7104814453125,0.19919857382774353,-0.20825305581092834,0.9990554451942444
1733141828004495000,0.7204951171875,0.12463226169347763,-0.06551183015108109,0.9681636691093445
1733141828014515000,0.730514892578125,-0.03834838792681694,0.0740336924791336,0.9628375172615051
1733141828024546800,0.740546875,-0.15778763592243195,0.0079892473295331,0.7380733489990234
1733141828034588200,0.750588134765625,-0.2696371078491211,-0.10492545366287231,0.3929378390312195
1733141828044637400,0.760637451171875,-0.24194104969501495,-0.2231663167476654,0.029693370684981346
1733141828054692600,0.770692626953125,-0.11091738939285278,-0.3190372884273529,-0.25259336829185486
1733141828064753000,0.7807529296875,-0.04367455467581749,-0.41064733266830444,-0.42196542024612427
1733141828074817500,0.790817626953125,-0.10665645450353622,-0.7110430598258972,-0.4826837182044983
1733141828084885000,0.800885009765625,-0.2248973250389099,-1.1754846572875977,-0.4209001958370209
1733141828094954800,0.810954833984375,-0.29520270228385925,-1.3437914848327637,-0.18654893338680267
1733141828105029600,0.821029541015625,-0.38148656487464905,-1.0902659893035889,0.19480448961257935
1733141828115085600,0.83108544921875,-0.4709661602973938,-0.7696308493614197,0.6230281591415405
1733141828125141500,0.8411416015625,-0.44327008724212646,-0.7792179584503174,0.9468590021133423
1733141828135198200,0.8511982421875,-0.32929015159606934,-0.9453943371772766,1.1588404178619385
1733141828145210400,0.86121044921875,-0.7319482564926147,-0.8942631483078003,1.4816060066223145
1733141828155229000,0.87122900390625,-1.5628299713134766,-0.8069140315055847,1.8214153051376343
1733141828165254000,0.88125390625,-2.1902523040771484,-0.9869384169578552,1.8885250091552734
1733141828175285200,0.89128515625,-2.7143468856811523,-0.6854774355888367,1.9620261192321777
1733141828185322200,0.901322265625,-2.8901102542877197,-0.3637770712375641,2.0951802730560303
1733141828195362000,0.911362060546875,-2.534322500228882,-0.137947678565979,2.297574520111084
1733141828205404200,0.921404052734375,-2.0645546913146973,-0.41171255707740784,2.5372519493103027
1733141828215448600,0.931448486328125,-1.595852255821228,-0.7493914365768433,2.6736016273498535
1733141828225495300,0.941495361328125,-1.0035827159881592,-0.7408695816993713,2.4637508392333984
1733141828235543600,0.95154345703125,-0.4816184937953949,-0.6119763851165771,1.9130253791809082
1733141828245593000,0.961593017578125,-0.20785360038280487,-0.7099778056144714,1.0853393077850342
1733141828255644000,0.971643798828125,-0.05219641700387001,-0.9911993145942688,0.10639014840126038
1733141828265700000,0.9817001953125,-0.05432688444852829,-1.0146344900131226,-0.9769518375396729
1733141828275752700,0.991752685546875,-0.07563154399394989,-0.8868064880371094,-1.7941187620162964
1733141828285809700,1.0018095703125,0.0053261648863554,-0.7888050675392151,-2.173341751098633
1733141828295836200,1.011836181640625,0.15765449404716492,-0.7398043274879456,-2.2457776069641113
1733141828305867800,1.02186767578125,0.26204732060432434,-0.8239577412605286,-2.1243410110473633
1733141828315900400,1.031900390625,0.22689463198184967,-1.082809329032898,-1.9134248495101929
1733141828325939000,1.04193896484375,0.13528458774089813,-1.3523132801055908,-1.6716169118881226
1733141828335978500,1.051978515625,-0.02876129187643528,-1.4396624565124512,-1.391460657119751
1733141828346023700,1.062023681640625,-0.2792242169380188,-1.3810746669769287,-1.1421960592269897
1733141828356070000,1.07206982421875,-0.5529890656471252,-1.1999850273132324,-0.9769518375396729
1733141828366121200,1.082121337890625,-0.829949676990509,-0.844197154045105,-0.9322120547294617
1733141828376169700,1.092169677734375,-1.0270178318023682,-0.6950645446777344,-0.9215596914291382
1733141828386222800,1.102222900390625,-1.0856056213378906,-0.4873441159725189,-0.7713618874549866
1733141828396253000,1.1122529296875,-1.114366888999939,-0.37762510776519775,-0.47629231214523315
1733141828406288100,1.1222880859375,-1.0291482210159302,-0.32755914330482483,-0.2270277887582779
1733141828416328400,1.132328369140625,-0.9151683449745178,-0.5278229713439941,-0.2770937383174896
1733141828426374400,1.14237451171875,-0.8544500470161438,-0.8495233654975891,-0.6179683208465576
1733141828436424700,1.1524248046875,-0.9194292426109314,-0.8985240459442139,-0.8725590109825134
1733141828446479600,1.162479736328125,-1.0621705055236816,-0.6961297988891602,-0.9386034607887268
1733141828456503600,1.172503662109375,-1.182541847229004,-0.32436347007751465,-1.0025174617767334
1733141828466532900,1.182532958984375,-1.2368687391281128,-0.13581721484661102,-1.0623036623001099
1733141828476568000,1.192568115234375,-1.275217056274414,-0.12090394645929337,-1.2348713874816895
1733141828486609200,1.202609130859375,-1.3338048458099365,-0.2849498391151428,-1.5800068378448486
1733141828496655600,1.212655517578125,-1.4733504056930542,-0.6236939430236816,-1.9613603353500366
1733141828506707500,1.22270751953125,-1.6437877416610718,-0.8878717422485352,-2.232994794845581
1733141828516763600,1.232763671875,-1.6065045595169067,-1.019960641860962,-2.311821937561035
1733141828526823700,1.24282373046875,-1.3029131889343262,-1.2830731868743896,-2.214885711669922
1733141828536886800,1.25288671875,-0.8896027207374573,-1.365096092224121,-2.035926580429077
1733141828546951700,1.26295166015625,-0.6328815817832947,-1.571751356124878,-1.8388584852218628
1733141828557017600,1.273017578125,-0.8235582709312439,-1.793319821357727,-1.7099653482437134
1733141828567082200,1.283082275390625,-1.1409977674484253,-2.296109676361084,-1.5139623880386353
1733141828577123800,1.293123779296875,-1.1420629024505615,-2.777595043182373,-1.115565299987793
1733141828587165400,1.30316552734375,-0.914103090763092,-3.0375120639801025,-0.6659038066864014
1733141828597207300,1.313207275390625,-0.7021217346191406,-2.6923763751983643,-0.17057043313980103
1733141828607249000,1.323248779296875,-0.4805532395839691,-2.115020275115967,0.2853493094444275
1733141828617290500,1.33329052734375,-0.34739911556243896,-1.7272753715515137,0.5516575574874878
1733141828627211800,1.343211669921875,-0.4517919421195984,-1.5397943258285522,0.5378095507621765
1733141828637142800,1.353142822265625,-0.6520557403564453,-1.3374000787734985,0.4898740351200104
1733141828647087400,1.36308740234375,-0.769231379032135,-1.1563104391098022,0.5708317756652832
1733141828657048800,1.373048828125,-0.7521876692771912,-1.1094402074813843,0.7700303196907043
1733141828667030000,1.383030029296875,-0.6659038066864014,-1.2031806707382202,1.0267515182495117
1733141828677032200,1.3930322265625,-0.5828156471252441,-1.3768136501312256,1.310103416442871
1733141828687056400,1.403056396484375,-0.5465977191925049,-1.587729811668396,1.6136949062347412
1733141828697102000,1.41310205078125,-0.5913375020027161,-1.8806688785552979,1.9247429370880127
1733141828707168800,1.423168701171875,-0.7117088437080383,-2.244978666305542,2.2709436416625977
1733141828717254100,1.433254150390625,-0.8512543439865112,-2.5890488624572754,2.695971727371216
1733141828727356000,1.44335595703125,-0.9907998442649841,-2.7765297889709473,3.177456855773926
1733141828737470700,1.453470703125,-1.1037145853042603,-2.858552932739258,3.593963146209717
1733141828747595800,1.463595703125,-1.153780460357666,-2.918205976486206,3.8689262866973877
1733141828757726700,1.473726806640625,-1.1718894243240356,-2.8724007606506348,3.965862512588501
1733141828767860200,1.483860107421875,-1.128214955329895,-2.828726291656494,3.8699915409088135
1733141828777958000,1.4939580078125,-1.0323439836502075,-2.9160754680633545,3.6505534648895264
1733141828787999500,1.50399951171875,-0.8853418231010437,-3.0289900302886963,3.485309362411499
1733141828798041000,1.514041015625,-0.7436658143997192,-3.15149188041687,3.442699909210205
1733141828808082700,1.524082763671875,-0.7202306985855103,-3.385843276977539,3.4831788539886475
1733141828818124500,1.53412451171875,-0.8544500470161438,-3.625520706176758,3.5918326377868652
1733141828828166100,1.544166259765625,-1.098388433456421,-3.807675361633301,3.741098403930664
1733141828838207700,1.554207763671875,-1.3710880279541016,-3.8823750019073486,3.8753178119659424
1733141828848249600,1.56424951171875,-1.6022436618804932,-3.7725226879119873,3.9669277667999268
1733141828858291200,1.574291259765625,-1.7524415254592896,-3.503018856048584,3.957340717315674
1733141828868332800,1.584332763671875,-1.7748113870620728,-3.1685357093811035,3.8369693756103516
1733141828878374400,1.59437451171875,-1.6555052995681763,-2.777595043182373,3.623922824859619
1733141828888416300,1.604416259765625,-1.4094364643096924,-2.3685455322265625,3.3564159870147705
1733141828898457900,1.614457763671875,-1.1740199327468872,-1.924343466758728,3.0006282329559326
1733141828908499500,1.62449951171875,-0.9971912503242493,-1.517424464225769,2.5159473419189453
1733141828918541000,1.634541015625,-0.7617747783660889,-1.3714874982833862,2.0003745555877686
1733141828928583000,1.6445830078125,-0.5210320949554443,-1.464162826538086,1.614760160446167
1733141828938624500,1.65462451171875,-0.43687868118286133,-1.554707646369934,1.5007802248001099
1733141828948666400,1.664666259765625,-0.5061188340187073,-1.4087706804275513,1.7106311321258545
1733141828958708000,1.6747080078125,-0.6083812117576599,-0.9208939671516418,2.125006675720215
1733141828968749600,1.68474951171875,-0.5742937326431274,-0.16457849740982056,2.564948081970215
1733141828978791400,1.69479150390625,-0.3772256374359131,0.47349607944488525,2.86747407913208
1733141828988833300,1.704833251953125,-0.12689588963985443,0.736608624458313,2.9324533939361572
1733141828998875100,1.714875244140625,0.07243584841489792,0.5533885359764099,2.820603847503662
1733141829008916700,1.724916748046875,0.16298064589500427,-0.054859500378370285,2.6128835678100586
1733141829018958600,1.73495849609375,0.10545806586742401,-0.8697627782821655,2.340183734893799
1733141829029000200,1.745000244140625,-0.12689588963985443,-1.726210117340088,1.9013078212738037
1733141829039041800,1.755041748046875,-0.2930722236633301,-2.2055649757385254,1.1876016855239868
1733141829049083400,1.76508349609375,-0.2259625494480133,-2.0894546508789062,0.38441595435142517
1733141829059125200,1.775125244140625,-0.01704372838139534,-1.5866645574569702,-0.43368300795555115
1733141829069166800,1.785166748046875,0.18854624032974243,-1.0487219095230103,-1.209305763244629
1733141829079208400,1.79520849609375,0.31530898809432983,-0.675890326499939,-1.7717487812042236
1733141829089250000,1.80525,0.35578784346580505,-0.49586597084999084,-2.0955796241760254
1733141829099292000,1.8152919921875,0.3440702557563782,-0.4170387387275696,-2.251103639602661
1733141829109333500,1.82533349609375,0.3419398069381714,-0.47349607944488525,-2.3192787170410156
1733141829119375000,1.835375,0.39094051718711853,-0.5991935729980469,-2.3395180702209473
1733141829129416700,1.845416748046875,0.4601806700229645,-0.7035863995552063,-2.293713092803955
1733141829139339800,1.85533984375,0.529420793056488,-0.8740236759185791,-2.214885711669922
1733141829149272000,1.86527197265625,0.5677692294120789,-1.073222279548645,-2.1147539615631104
1733141829159218000,1.875218017578125,0.5422036051750183,-1.149919033050537,-1.9517731666564941
1733141829169180400,1.885180419921875,0.4495283365249634,-1.0647003650665283,-1.7706836462020874
1733141829179162600,1.89516259765625,0.3312874734401703,-0.8420667052268982,-1.667356014251709
1733141829189165300,1.905165283203125,0.24074266850948334,-0.5917369723320007,-1.6332684755325317
1733141829199189800,1.915189697265625,0.18854624032974243,-0.418103963136673,-1.597050666809082
1733141829209235700,1.925235595703125,0.10758853703737259,-0.3222329914569855,-1.5246148109436035
1733141829219302100,1.93530224609375,0.02023942768573761,-0.28068891167640686,-1.38400399684906
1733141829229387000,1.945386962890625,-0.05752258375287056,-0.24660144746303558,-1.1613702774047852
1733141829239483100,1.955483154296875,-0.12583065032958984,-0.16244803369045258,-0.9492557644844055
1733141829249592800,1.9655927734375,-0.2142449915409088,-0.020772043615579605,-0.8437976837158203
1733141829259712800,1.975712646484375,-0.3101159632205963,0.13262151181697845,-0.8033188581466675
1733141829269839400,1.98583935546875,-0.3846822679042816,0.29240646958351135,-0.660577654838562
1733141829279969300,1.99596923828125,-0.3963998258113861,0.4798874855041504,-0.29626792669296265
1733141829290084000,2.006083984375,-0.3516600430011749,0.6833469867706299,0.29174068570137024
1733141829300126000,2.0161259765625,-0.3207682967185974,0.8890700936317444,1.008642554283142
1733141829310167300,2.026167236328125,-0.32715970277786255,1.0658987760543823,1.722348690032959
1733141829320209000,2.036208984375,-0.33994248509407043,1.1905310153961182,2.344444751739502
1733141829330250500,2.04625048828125,-0.3537905216217041,1.3343374729156494,2.881322145462036
1733141829340292000,2.0562919921875,-0.362312376499176,1.4099690914154053,3.3233938217163086
1733141829350333700,2.066333740234375,-0.33994248509407043,1.420621395111084,3.7379026412963867
1733141829360375300,2.076375244140625,-0.2983984053134918,1.6389942169189453,4.149082660675049
1733141829370417000,2.0864169921875,-0.2696371078491211,2.088522434234619,4.526175022125244
1733141829380458200,2.096458251953125,-0.22063638269901276,2.6530959606170654,4.913919925689697
1733141829390499800,2.106499755859375,-0.17909230291843414,3.2613439559936523,5.306991100311279
1733141829400541700,2.116541748046875,-0.1524614691734314,3.5468266010284424,5.690474987030029
1733141829410583300,2.126583251953125,-0.18974463641643524,3.6118056774139404,6.02495813369751
1733141829420625200,2.136625244140625,-0.19933173060417175,4.3787736892700195,6.148525238037109
1733141829430666800,2.146666748046875,-0.30478981137275696,4.118856430053711,5.006595134735107
1733141829440708600,2.15670849609375,-0.6776213645935059,1.1266170740127563,-0.7340787053108215
1733141829450750200,2.166750244140625,-0.45605289936065674,0.47456130385398865,-2.08918833732605
1733141829460792000,2.1767919921875,-0.2248973250389099,-0.7621742486953735,-1.0718907117843628
1733141829470834000,2.186833984375,-0.05539211630821228,-1.1424623727798462,-0.32929015159606934
1733141829480875800,2.196875732421875,0.22050324082374573,-0.8889369368553162,0.3620460629463196
1733141829490917600,2.206917724609375,0.33661362528800964,-1.0955921411514282,0.6613765358924866
1733141829500959500,2.21695947265625,0.3376788794994354,-1.4247491359710693,0.8307486176490784
1733141829511001000,2.2270009765625,0.2897433936595917,-1.7453843355178833,0.887205958366394
1733141829521043000,2.23704296875,0.22795987129211426,-2.0468451976776123,0.7380733489990234
1733141829531084800,2.247084716796875,0.20878566801548004,-2.2993054389953613,0.447264701128006
1733141829541126700,2.257126708984375,0.2343512624502182,-2.4516336917877197,0.08402025699615479
1733141829551168500,2.26716845703125,0.29080861806869507,-2.3834588527679443,-0.3314206302165985
1733141829561210400,2.27721044921875,0.3504616618156433,-2.1256725788116455,-0.7575138211250305
1733141829571251700,2.287251708984375,0.39839714765548706,-1.7517757415771484,-1.1262176036834717
1733141829581293000,2.29729296875,0.42076703906059265,-1.403444528579712,-1.438330888748169
1733141829591334700,2.307334716796875,0.40052762627601624,-1.149919033050537,-1.7216829061508179
1733141829601376000,2.3173759765625,0.36963585019111633,-0.965633749961853,-2.0146219730377197
1733141829611417600,2.32741748046875,0.36857062578201294,-0.8548495173454285,-2.321408987045288
1733141829621459000,2.337458984375,0.364309698343277,-0.843131959438324,-2.606891632080078
1733141829631500500,2.34750048828125,0.3547225892543793,-0.951785683631897,-2.8295252323150635
1733141829641542000,2.3575419921875,0.38348388671875,-1.1520495414733887,-2.9658751487731934
1733141829651583500,2.36758349609375,0.4165061116218567,-1.2798774242401123,-3.0170061588287354
1733141829661625000,2.377625,0.39733192324638367,-1.2212896347045898,-3.005288600921631
1733141829671667000,2.3876669921875,0.36537492275238037,-1.0188953876495361,-2.8518950939178467
1733141829681708800,2.397708740234375,0.26204732060432434,-0.6812165379524231,-2.518477201461792
1733141829691750400,2.40775048828125,0.07669677585363388,-0.34566810727119446,-2.022078514099121
1733141829701792500,2.41779248046875,-0.0981345921754837,-0.016511112451553345,-1.3147639036178589
1733141829711834400,2.42783447265625,-0.1833532303571701,0.2764279842376709,-0.46457475423812866
1733141829721876200,2.437876220703125,-0.18974463641643524,0.5129097104072571,0.3886769115924835
1733141829731918000,2.44791796875,-0.19080986082553864,0.797326922416687,1.1716232299804688
1733141829741960000,2.4579599609375,-0.17696183919906616,1.2086399793624878,1.8778727054595947
1733141829751881700,2.4678818359375,-0.1396786868572235,1.6986472606658936,2.5340561866760254
1733141829761813000,2.47781298828125,-0.14820054173469543,2.2035677433013916,3.1657392978668213
1733141829771758000,2.487758056640625,-0.21104928851127625,2.5817253589630127,3.765598773956299
1733141829781719800,2.4977197265625,-0.29520270228385925,2.827794313430786,4.280106067657471
1733141829791701200,2.507701171875,-0.31544211506843567,3.019536256790161,4.6412200927734375
1733141829801703700,2.51770361328125,-0.24513675272464752,3.234713315963745,4.829766750335693
1733141829811728000,2.527727783203125,-0.09174319356679916,4.014463901519775,4.851071357727051
1733141829821773800,2.53777392578125,0.0031956990715116262,5.276764869689941,3.9402968883514404
1733141829831840500,2.547840576171875,-0.27283281087875366,1.962825059890747,-1.9539036750793457
1733141829841926000,2.55792578125,0,0.9934629201889038,-2.1552326679229736
1733141829852022800,2.568022705078125,-0.04580501839518547,-1.2607033252716064,-0.8949288725852966
1733141829862133500,2.578133544921875,0.05539211630821228,-1.38853120803833,0.23421810567378998
1733141829872254500,2.58825439453125,0.2141118347644806,-1.2468552589416504,0.7125077247619629
1733141829882382000,2.598382080078125,0.3387441039085388,-1.297986388206482,0.6475285291671753
1733141829892509700,2.608509765625,0.34620073437690735,-1.164832353591919,0.3599156141281128
1733141829902627600,2.618627685546875,0.3302222490310669,-1.1467233896255493,-0.12583065032958984
1733141829912548900,2.628548828125,0.3067871034145355,-1.2404638528823853,-0.6893389225006104
1733141829922479900,2.63847998046875,0.2247641682624817,-1.4226187467575073,-1.2497845888137817
1733141829932419600,2.648419677734375,0.1065233051776886,-1.5845341682434082,-1.7877273559570312
1733141829942376700,2.658376708984375,0.05858781561255455,-1.5152939558029175,-2.260690689086914
1733141829952349200,2.66834912109375,0.09161003679037094,-1.2670947313308716,-2.602630615234375
1733141829962343700,2.67834375,0.11184946447610855,-1.028482437133789,-2.7677416801452637
1733141829972356900,2.68835693359375,0.08841434121131897,-0.9336767196655273,-2.761350393295288
1733141829982393600,2.6983935546875,0.02769605815410614,-0.9773513078689575,-2.630326747894287
1733141829992448500,2.708448486328125,-0.02236989326775074,-1.065765619277954,-2.5024986267089844
1733141830002525000,2.71852490234375,-0.02769605815410614,-1.171223759651184,-2.4822592735290527
1733141830012616000,2.728615966796875,0.0010652330238372087,-1.2766817808151245,-2.570673704147339
1733141830022723800,2.738723876953125,0.06284874677658081,-1.3001168966293335,-2.6505661010742188
1733141830032845300,2.74884521484375,0.13315412402153015,-1.1083749532699585,-2.5056943893432617
1733141830042976500,2.7589765625,0.14700216054916382,-0.7621742486953735,-2.130732297897339
1733141830053113300,2.76911328125,0.11184946447610855,-0.37655988335609436,-1.5949201583862305
1733141830063252000,2.779251953125,0.05113118514418602,0.006924014538526535,-0.9513862729072571
1733141830073335800,2.789335693359375,-0.009587096981704235,0.34566810727119446,-0.3111811876296997
1733141830083378200,2.799378173828125,-0.05752258375287056,0.5693670511245728,0.2427399754524231
1733141830093419300,2.809419189453125,-0.06284874677658081,0.7717612981796265,0.8190310597419739
1733141830103460000,2.819460205078125,-0.05539211630821228,1.0254199504852295,1.4539098739624023
1733141830113501200,2.829501220703125,-0.05006595328450203,1.436599850654602,2.2485737800598145
1733141830123542300,2.839542236328125,-0.05432688444852829,2.070413589477539,3.154021739959717
1733141830133583600,2.84958349609375,-0.08202294260263443,2.776663064956665,3.9552102088928223
1733141830143625000,2.859625,-0.09174319356679916,3.497825860977173,4.577306270599365
1733141830153666600,2.86966650390625,-0.14287437498569489,4.010202884674072,5.014051914215088
1733141830163708400,2.87970849609375,-0.31863781809806824,4.081573486328125,5.318708419799805
1733141830173750300,2.889750244140625,-0.5220973491668701,4.279706954956055,5.496602535247803
1733141830183792000,2.899792236328125,-0.7639052271842957,0.8933310508728027,3.704880475997925
1733141830193834200,2.909834228515625,-1.1409977674484253,0.14646953344345093,-2.8859825134277344
1733141830203760400,2.919760498046875,-0.3335510790348053,0.2998631000518799,-1.875076413154602
1733141830213696000,2.929696044921875,-0.05539211630821228,-0.41171255707740784,-0.7777532339096069
1733141830223645000,2.93964501953125,0.07563154399394989,0.3637770712375641,0.44939517974853516
1733141830233610200,2.9496103515625,0.11184946447610855,0.33395054936408997,0.9862726330757141
1733141830243594500,2.959594482421875,0.10226237028837204,0.07829462736845016,1.193993091583252
1733141830253599000,2.969598876953125,0.03302222490310669,-0.055924732238054276,0.934076189994812
1733141830263624400,2.97962451171875,-0.04154408723115921,-0.01438064593821764,0.32156720757484436
1733141830273667600,2.98966748046875,-0.09706936031579971,0.0964035913348198,-0.09600412845611572
1733141830283731200,2.999731201171875,-0.11517832428216934,0.1059906855225563,-0.1940055638551712
1733141830293813000,3.00981298828125,-0.13328728079795837,0.034620072692632675,-0.1311568170785904
1733141830303911000,3.019910888671875,-0.10239552706480026,-0.021837277337908745,-0.037416309118270874
1733141830314017300,3.030017333984375,-0.04154408723115921,0.0005326165119186044,-0.007589785382151604
1733141830324134100,3.040134033203125,-0.03408745676279068,0.036750540137290955,0.009453942999243736
1733141830334258000,3.0502578125,-0.05432688444852829,0.020772043615579605,0.05312849581241608
1733141830344344000,3.060343994140625,-0.07669677585363388,-0.020772043615579605,0.09041165560483932
1733141830354431700,3.070431640625,-0.09600412845611572,-0.039946239441633224,0.07975932210683823
1733141830364426500,3.080426513671875,-0.09280842542648315,-0.027163442224264145,0.040345702320337296
1733141830374423300,3.09042333984375,-0.06604444980621338,-0.006924014538526535,0.012649642303586006
1733141830384423700,3.100423583984375,-0.03515268862247467,-0.00585878174751997,0.007323476951569319
1733141830394429200,3.11042919921875,-0.0031956990715116262,-0.0026630824431777,0.014780107885599136
1733141830404440800,3.12044091796875,0.02876129187643528,0.027163442224264145,0.026497671380639076
1733141830414460000,3.1304599609375,0.05539211630821228,0.052729032933712006,0.045671865344047546
1733141830424487000,3.14048681640625,0.07776200771331787,0.06657706201076508,0.060585130006074905
1733141830434522000,3.150522216796875,0.08841434121131897,0.07616416364908218,0.060585130006074905
1733141830444565200,3.160565185546875,0.08947957307100296,0.0846860259771347,0.04993279650807381
1733141830454616000,3.170615966796875,0.07563154399394989,0.0857512578368187,0.026497671380639076
1733141830464675300,3.18067529296875,0.05006595328450203,0.08788172155618668,-0.006524552125483751
1733141830474740500,3.190740478515625,0.02343512699007988,0.09214265644550323,-0.03954677656292915
1733141830484810800,3.200810791015625,0.0106523297727108,0.09746882319450378,-0.058720968663692474
1733141830494884400,3.21088427734375,0.01917419396340847,0.08788172155618668,-0.057655736804008484
1733141830504960000,3.2209599609375,0.03941362351179123,0.062316130846738815,-0.041677240282297134
1733141830515036400,3.231036376953125,0.05752258375287056,0.030359141528606415,-0.013981183059513569
1733141830525093000,3.241093017578125,0.07137060910463333,-0.0047935484908521175,0.017975807189941406
1733141830535152400,3.25115234375,0.07563154399394989,-0.045272402465343475,0.047802332788705826
1733141830545182000,3.261181884765625,0.07350108027458191,-0.07616416364908218,0.06271559745073318
1733141830555211800,3.271211669921875,0.05858781561255455,-0.08681648969650269,0.052063263952732086
1733141830565242400,3.281242431640625,0.0426093190908432,-0.07829462736845016,0.028628136962652206
1733141830575278800,3.29127880859375,0.03089175745844841,-0.054859500378370285,0.004127778112888336
1733141830585321200,3.3013212890625,0.02769605815410614,-0.030359141528606415,-0.012915950268507004
1733141830595364600,3.311364501953125,0.02556559257209301,-0.012250179424881935,-0.008655018173158169
1733141830605410600,3.32141064453125,0.02450035884976387,-0.01118494663387537,0.011584409512579441
1733141830615457300,3.331457275390625,0.01917419396340847,-0.033554840832948685,0.038215234875679016
1733141830625504000,3.34150390625,0.0159784946590662,-0.052729032933712006,0.057389430701732635
1733141830635551000,3.351551025390625,0.009587096981704235,-0.058055199682712555,0.06271559745073318
1733141830645593900,3.36159375,0.0031956990715116262,-0.049533337354660034,0.057389430701732635
1733141830655635200,3.37163525390625,-0.0053261648863554,-0.027163442224264145,0.045671865344047546
1733141830665676300,3.38167626953125,-0.0106523297727108,0.0005326165119186044,0.03288906812667847
1733141830675717600,3.391717529296875,-0.0106523297727108,0.022902509197592735,0.025432437658309937
1733141830685759000,3.401759033203125,-0.00852186419069767,0.034620072692632675,0.025432437658309937
1733141830695800300,3.41180029296875,-0.0031956990715116262,0.030359141528606415,0.03288906812667847
1733141830705841700,3.421841552734375,0.0021304660476744175,0.023967742919921875,0.044606633484363556
1733141830715883300,3.43188330078125,0.0063913981430232525,0.020772043615579605,0.060585130006074905
1733141830725927000,3.441927001953125,0.0063913981430232525,0.013315413147211075,0.07656362652778625
1733141830735968800,3.45196875,0.0021304660476744175,0.012250179424881935,0.08082455396652222
1733141830746009600,3.462009521484375,-0.0031956990715116262,0.019706811755895615,0.07762885838747025
1733141830756050400,3.472050537109375,-0.009587096981704235,0.036750540137290955,0.06378082931041718
1733141830766096100,3.48209619140625,-0.012782796286046505,0.054859500378370285,0.03928046673536301
1733141830776137000,3.492136962890625,-0.012782796286046505,0.06657706201076508,0.023301972076296806
1733141830786182400,3.502182373046875,-0.0106523297727108,0.06764229387044907,0.016910573467612267
1733141830796219600,3.5122197265625,-0.00852186419069767,0.0644465982913971,0.019041040912270546
1733141830806261800,3.52226171875,-0.009587096981704235,0.053794268518686295,0.027562905102968216
1733141830816303000,3.53230322265625,-0.012782796286046505,0.041011471301317215,0.03928046673536301
1733141830826343200,3.54234326171875,-0.02023942768573761,0.027163442224264145,0.044606633484363556
1733141830836388000,3.55238818359375,-0.02663082629442215,0.020772043615579605,0.04673709720373154
1733141830846433500,3.56243359375,-0.02663082629442215,0.018641578033566475,0.038215234875679016
1733141830856483300,3.5724833984375,-0.02450035884976387,0.027163442224264145,0.024367205798625946
1733141830866512100,3.58251220703125,-0.02236989326775074,0.045272402465343475,0.016910573467612267
1733141830876541200,3.592541259765625,-0.02450035884976387,0.054859500378370285,0.014780107885599136
1733141830886576000,3.602576171875,-0.02450035884976387,0.054859500378370285,0.012649642303586006
1733141830896612000,3.612612060546875,-0.01810896210372448,0.06657706201076508,0.011584409512579441
1733141830906654000,3.622654052734375,-0.00852186419069767,0.0644465982913971,0.010519175790250301
1733141830916701400,3.632701416015625,-0.0031956990715116262,0.043141938745975494,0.007323476951569319
1733141830926754300,3.64275439453125,-0.0021304660476744175,0.017576344311237335,0.006258244160562754
1733141830936803000,3.652802978515625,-0.004260932095348835,0.0005326165119186044,0.007323476951569319
1733141830946856400,3.6628564453125,-0.009587096981704235,-0.0015978495357558131,0.006258244160562754
1733141830956886500,3.672886474609375,-0.01491326279938221,0.00905448105186224,-0.00226362026296556
1733141830966921700,3.682921630859375,-0.01704372838139534,0.018641578033566475,-0.013981183059513569
1733141830976957700,3.692957763671875,-0.012782796286046505,0.025032976642251015,-0.019307348877191544
1733141830986994200,3.702994140625,-0.00852186419069767,0.027163442224264145,-0.016111649572849274
1733141830997036300,3.713036376953125,-0.0053261648863554,0.023967742919921875,-0.010785484686493874
1733141831007079200,3.7230791015625,0.0031956990715116262,0.022902509197592735,-0.00226362026296556
1733141831017127200,3.733127197265625,0.01384802907705307,0.027163442224264145,0.004127778112888336
1733141831027180300,3.74318017578125,0.0159784946590662,0.027163442224264145,0.008388710208237171
1733141831037237500,3.753237548828125,0.012782796286046505,0.020772043615579605,0.013714875094592571
1733141831047262200,3.76326220703125,0.0010652330238372087,0.018641578033566475,0.015845341607928276
1733141831057287400,3.773287353515625,-0.00852186419069767,0.030359141528606415,0.014780107885599136
1733141831067318800,3.78331884765625,-0.01171756349503994,0.043141938745975494,0.012649642303586006
1733141831077356300,3.793356201171875,-0.0106523297727108,0.048468101769685745,0.007323476951569319
1733141831087400000,3.80339990234375,-0.0031956990715116262,0.049533337354660034,0.0030625448562204838
1733141831097449200,3.81344921875,0.007456631399691105,0.053794268518686295,-0.0033288532868027687
1733141831107499300,3.823499267578125,0.01491326279938221,0.058055199682712555,-0.009720250964164734
1733141831117554200,3.83355419921875,0.01704372838139534,0.050598569214344025,-0.013981183059513569
1733141831127613200,3.84361328125,0.01384802907705307,0.032489608973264694,-0.015046416781842709
1733141831137675800,3.85367578125,0.007456631399691105,0.025032976642251015,-0.011850717477500439
1733141831147740700,3.86374072265625,0.0021304660476744175,0.031424373388290405,-0.009720250964164734
1733141831157806800,3.873806884765625,-0.009587096981704235,0.033554840832948685,-0.010785484686493874
1733141831167873300,3.883873291015625,-0.02023942768573761,0.036750540137290955,-0.010785484686493874
1733141831177923300,3.89392333984375,-0.02343512699007988,0.047402869910001755,-0.013981183059513569
1733141831187921000,3.9039208984375,-0.01917419396340847,0.054859500378370285,-0.017176883295178413
1733141831197921800,3.913921875,-0.01171756349503994,0.049533337354660034,-0.015046416781842709
1733141831207927800,3.923927734375,-0.00852186419069767,0.036750540137290955,-0.008655018173158169
1733141831217940000,3.93393994140625,-0.0053261648863554,0.030359141528606415,-0.0033288532868027687
1733141831227959300,3.943959228515625,-0.0021304660476744175,0.027163442224264145,-0.0011983871227130294
1733141831237986600,3.953986572265625,-0.0021304660476744175,0.026098208501935005,-0.004394086077809334
1733141831248021800,3.964021728515625,-0.00852186419069767,0.023967742919921875,-0.008655018173158169
1733141831258065000,3.97406494140625,-0.0159784946590662,0.028228675946593285,-0.015046416781842709
1733141831268115500,3.984115478515625,-0.01917419396340847,0.037815771996974945,-0.017176883295178413
1733141831278168300,3.994168212890625,-0.0159784946590662,0.046337638050317764,-0.015046416781842709
1733141831288227600,4.0042275390625,-0.009587096981704235,0.051663801074028015,-0.015046416781842709
1733141831298292200,4.014292236328125,-0.004260932095348835,0.061250898987054825,-0.017176883295178413
1733141831308345600,4.024345703125,0.0021304660476744175,0.07722939550876617,-0.020372580736875534
1733141831318403600,4.034403564453125,0.00852186419069767,0.07829462736845016,-0.024633513763546944
1733141831328464600,4.044464599609375,0.01384802907705307,0.060185667127370834,-0.023568280041217804
1733141831338528500,4.054528564453125,0.01491326279938221,0.032489608973264694,-0.007589785382151604
1733141831348594000,4.064593994140625,0.012782796286046505,0.013315413147211075,0.015845341607928276
1733141831358554400,4.074554443359375,0.00852186419069767,0.010119713842868805,0.026497671380639076
1733141831368522800,4.084522705078125,0,0.022902509197592735,0.028628136962652206
1733141831378501600,4.094501708984375,-0.0063913981430232525,0.030359141528606415,0.024367205798625946
1733141831388493300,4.104493408203125,-0.00852186419069767,0.033554840832948685,0.010519175790250301
1733141831398499300,4.114499267578125,-0.009587096981704235,0.032489608973264694,0.0009320789249613881
1733141831408515600,4.124515625,-0.0106523297727108,0.027163442224264145,-0.0001331541279796511
1733141831418547200,4.134547119140625,-0.01171756349503994,0.020772043615579605,0.004127778112888336
1733141831428594400,4.144594482421875,-0.0106523297727108,0.017576344311237335,0.007323476951569319
1733141831438651600,4.154651611328125,-0.00852186419069767,0.015445878729224205,0.008388710208237171
1733141831448722200,4.16472216796875,-0.01171756349503994,0.01438064593821764,0.007323476951569319
1733141831458799900,4.1747998046875,-0.01171756349503994,0.01438064593821764,0.005193010903894901
1733141831468887800,4.1848876953125,-0.0106523297727108,0.019706811755895615,0.0030625448562204838
1733141831478978800,4.194978759765625,-0.00852186419069767,0.031424373388290405,0.005193010903894901
1733141831489071600,4.205071533203125,-0.007456631399691105,0.036750540137290955,0.009453942999243736
1733141831499168300,4.215168212890625,-0.0063913981430232525,0.035685304552316666,0.010519175790250301
1733141831509179100,4.22517919921875,-0.0053261648863554,0.030359141528606415,0.010519175790250301
1733141831519196200,4.235196044921875,-0.0031956990715116262,0.023967742919921875,0.012649642303586006
1733141831529220000,4.24522021484375,-0.0010652330238372087,0.022902509197592735,0.013714875094592571
1733141831539246300,4.255246337890625,0,0.027163442224264145,0.013714875094592571
1733141831549280300,4.2652802734375,0,0.023967742919921875,0.016910573467612267
1733141831559317000,4.27531689453125,-0.0031956990715116262,0.00905448105186224,0.024367205798625946
1733141831569361700,4.285361572265625,-0.007456631399691105,-0.010119713842868805,0.033954303711652756
1733141831579414000,4.2954140625,-0.00852186419069767,-0.023967742919921875,0.03928046673536301
1733141831589468000,4.305468017578125,-0.004260932095348835,-0.019706811755895615,0.03928046673536301
1733141831599528000,4.31552783203125,-0.004260932095348835,-0.00905448105186224,0.03288906812667847
1733141831609588200,4.325588134765625,-0.0053261648863554,0.0015978495357558131,0.026497671380639076
1733141831619652900,4.33565283203125,-0.007456631399691105,0.01118494663387537,0.015845341607928276
1733141831629720800,4.345720947265625,-0.0106523297727108,0.017576344311237335,0.010519175790250301
1733141831639721200,4.35572119140625,-0.01171756349503994,0.01438064593821764,0.008388710208237171
1733141831649727700,4.365727783203125,-0.0106523297727108,0.0047935484908521175,0.013714875094592571
1733141831659737000,4.375737060546875,-0.009587096981704235,-0.00585878174751997,0.021171506494283676
1733141831669755400,4.38575537109375,-0.0063913981430232525,-0.00905448105186224,0.028628136962652206
1733141831679778000,4.395778076171875,-0.0031956990715116262,-0.0026630824431777,0.029693370684981346
1733141831689806000,4.40580615234375,-0.0010652330238372087,0.0047935484908521175,0.029693370684981346
1733141831699844400,4.41584423828125,-0.0010652330238372087,0.00585878174751997,0.03288906812667847
1733141831709887700,4.4258876953125,-0.0021304660476744175,-0.0015978495357558131,0.03928046673536301
1733141831719940900,4.43594091796875,-0.0021304660476744175,-0.010119713842868805,0.048867564648389816
1733141831730003000,4.4460029296875,0.0010652330238372087,-0.016511112451553345,0.05632419511675835
1733141831740072000,4.456072021484375,0.0031956990715116262,-0.020772043615579605,0.060585130006074905
1733141831750147000,4.46614697265625,0.0053261648863554,-0.017576344311237335,0.058454662561416626
1733141831760227000,4.47622705078125,0.0053261648863554,-0.013315413147211075,0.055258963257074356
1733141831770310100,4.48631005859375,0.0021304660476744175,-0.010119713842868805,0.052063263952732086
1733141831780394500,4.49639453125,-0.0010652330238372087,-0.00585878174751997,0.05312849581241608
1733141831790466600,4.506466552734375,0,-0.0037283156998455524,0.048867564648389816
1733141831800508700,4.5165087890625,0.0010652330238372087,0.0005326165119186044,0.040345702320337296
1733141831810429400,4.526429443359375,0,0.0047935484908521175,0.035019535571336746
1733141831820359700,4.536359619140625,0.0010652330238372087,0.01118494663387537,0.029693370684981346
1733141831830303700,4.5463037109375,0.004260932095348835,0.022902509197592735,0.021171506494283676
1733141831840260400,4.55626025390625,0.007456631399691105,0.036750540137290955,0.013714875094592571
1733141831850236700,4.566236572265625,0.0106523297727108,0.031424373388290405,0.0009320789249613881
1733141831860230100,4.576230224609375,0.0106523297727108,0.021837277337908745,-0.008655018173158169
1733141831870246400,4.586246337890625,0.00852186419069767,0.012250179424881935,-0.010785484686493874
1733141831880281000,4.596281005859375,0.0053261648863554,-0.0005326165119186044,-0.008655018173158169
1733141831890338600,4.606338623046875,0.0021304660476744175,-0.0047935484908521175,-0.007589785382151604
1733141831900417300,4.616417236328125,0,0.00585878174751997,-0.009720250964164734
1733141831910515000,4.626514892578125,0.0010652330238372087,0.015445878729224205,-0.016111649572849274
1733141831920628500,4.63662841796875,0.0010652330238372087,0.022902509197592735,-0.019307348877191544
1733141831930749400,4.64674951171875,0.0021304660476744175,0.026098208501935005,-0.019307348877191544
1733141831940879000,4.656879150390625,0.0063913981430232525,0.029293907806277275,-0.013981183059513569
1733141831951014100,4.66701416015625,0.01171756349503994,0.025032976642251015,-0.006524552125483751
1733141831961150000,4.67714990234375,0.01384802907705307,0.013315413147211075,0.007323476951569319
1733141831971217200,4.687217041015625,0.0106523297727108,0.0015978495357558131,0.022236740216612816
1733141831981258800,4.6972587890625,0.004260932095348835,-0.0037283156998455524,0.027562905102968216
1733141831991300600,4.707300537109375,-0.0021304660476744175,-0.0005326165119186044,0.028628136962652206
1733141832001342200,4.71734228515625,-0.004260932095348835,0.01118494663387537,0.024367205798625946
1733141832011383800,4.7273837890625,-0.004260932095348835,0.022902509197592735,0.020106272771954536
1733141832021425400,4.73742529296875,-0.0021304660476744175,0.032489608973264694,0.013714875094592571
1733141832031346700,4.7473466796875,-0.0021304660476744175,0.041011471301317215,0.004127778112888336
1733141832041277400,4.75727734375,-0.0021304660476744175,0.046337638050317764,-0.0011983871227130294
1733141832051221800,4.7672216796875,-0.0031956990715116262,0.047402869910001755,-0.0011983871227130294
1733141832061178600,4.7771787109375,-0.0053261648863554,0.041011471301317215,0.004127778112888336
1733141832071155200,4.7871552734375,-0.0053261648863554,0.027163442224264145,0.006258244160562754
1733141832081153500,4.797153564453125,-0.004260932095348835,0.018641578033566475,0.010519175790250301
1733141832091173400,4.80717333984375,-0.0031956990715116262,0.015445878729224205,0.012649642303586006
1733141832101210600,4.817210693359375,-0.004260932095348835,0.017576344311237335,0.008388710208237171
1733141832111270100,4.827270263671875,-0.0021304660476744175,0.026098208501935005,0.0030625448562204838
1733141832121350400,4.837350341796875,0.0010652330238372087,0.032489608973264694,-0.0001331541279796511
1733141832131443700,4.847443603515625,0.0021304660476744175,0.035685304552316666,0.0009320789249613881
1733141832141552600,4.857552734375,0.0021304660476744175,0.033554840832948685,0.005193010903894901
1733141832151674000,4.867674072265625,0.0010652330238372087,0.020772043615579605,0.012649642303586006
1733141832161799000,4.877798828125,0,0.00585878174751997,0.016910573467612267
1733141832171929000,4.88792919921875,-0.004260932095348835,-0.0026630824431777,0.015845341607928276
1733141832181972200,4.89797216796875,-0.0063913981430232525,-0.0005326165119186044,0.009453942999243736
1733141832192020000,4.90802001953125,-0.00852186419069767,0.006924014538526535,-0.0011983871227130294
1733141832202057200,4.91805712890625,-0.0106523297727108,0.016511112451553345,-0.010785484686493874
1733141832212094700,4.9280947265625,-0.00852186419069767,0.026098208501935005,-0.021437814459204674
1733141832222137000,4.93813720703125,-0.007456631399691105,0.028228675946593285,-0.023568280041217804
1733141832232179700,4.9481796875,-0.007456631399691105,0.018641578033566475,-0.017176883295178413
1733141832242227000,4.95822705078125,-0.0053261648863554,0.018641578033566475,-0.007589785382151604
1733141832252278800,4.96827880859375,-0.0021304660476744175,0.021837277337908745,-0.0011983871227130294
1733141832262333400,4.97833349609375,0.004260932095348835,0.023967742919921875,-0.004394086077809334
1733141832272391400,4.988391357421875,0.0031956990715116262,0.026098208501935005,-0.0033288532868027687
1733141832282451700,4.99845166015625,-0.0010652330238372087,0.029293907806277275,0.0030625448562204838
1733141832292512000,5.008511962890625,-0.0021304660476744175,0.028228675946593285,0.001997311832383275
1733141832302473500,5.018473388671875,0,0.039946239441633224,-0.0033288532868027687
1733141832312438300,5.028438232421875,0.0021304660476744175,0.043141938745975494,-0.008655018173158169
1733141832322414000,5.0384140625,0,0.033554840832948685,-0.013981183059513569
1733141832332398300,5.0483984375,-0.0010652330238372087,0.025032976642251015,-0.017176883295178413
1733141832342397400,5.0583974609375,-0.0010652330238372087,0.01118494663387537,-0.010785484686493874
1733141832352408000,5.068407958984375,0,-0.0005326165119186044,-0.0033288532868027687
1733141832362436000,5.07843603515625,0.0021304660476744175,-0.0037283156998455524,-0.004394086077809334
1733141832372476000,5.088475830078125,0.004260932095348835,0.0026630824431777,-0.010785484686493874
1733141832382532400,5.098532470703125,0.0053261648863554,0.012250179424881935,-0.016111649572849274
1733141832392599000,5.10859912109375,0.0031956990715116262,0.018641578033566475,-0.019307348877191544
1733141832402679600,5.118679443359375,0.0010652330238372087,0.018641578033566475,-0.019307348877191544
1733141832412767000,5.12876708984375,0.0010652330238372087,0.015445878729224205,-0.016111649572849274
1733141832422859500,5.138859619140625,0.0053261648863554,0.01438064593821764,-0.011850717477500439
1733141832432959700,5.148959716796875,0.00852186419069767,0.012250179424881935,-0.009720250964164734
1733141832443064300,5.159064208984375,0.0106523297727108,0.00905448105186224,-0.005459319334477186
1733141832453099000,5.16909912109375,0.00852186419069767,0.01438064593821764,0.001997311832383275
1733141832463138800,5.179138916015625,0.0053261648863554,0.025032976642251015,0.001997311832383275
1733141832473183500,5.18918359375,0.0021304660476744175,0.034620072692632675,-0.0001331541279796511
1733141832483232800,5.199232666015625,0.0021304660476744175,0.037815771996974945,-0.0033288532868027687
1733141832493286000,5.209285888671875,0.0021304660476744175,0.038881003856658936,-0.007589785382151604
1733141832503342800,5.2193427734375,0.0021304660476744175,0.037815771996974945,-0.013981183059513569
1733141832513402400,5.22940234375,0.0010652330238372087,0.031424373388290405,-0.011850717477500439
1733141832523463700,5.239463623046875,0.0010652330238372087,0.025032976642251015,-0.0033288532868027687
1733141832533526300,5.2495263671875,0.0031956990715116262,0.021837277337908745,0.0009320789249613881
1733141832543589000,5.259589111328125,0.004260932095348835,0.025032976642251015,0.006258244160562754
1733141832553636900,5.269636962890625,0.004260932095348835,0.030359141528606415,0.005193010903894901
1733141832563644400,5.27964453125,0.0063913981430232525,0.032489608973264694,0.0030625448562204838
1733141832573654800,5.28965478515625,0.004260932095348835,0.029293907806277275,0.0009320789249613881
1733141832583668700,5.299668701171875,-0.0010652330238372087,0.026098208501935005,-0.0033288532868027687
1733141832593687800,5.309687744140625,-0.004260932095348835,0.026098208501935005,-0.011850717477500439
1733141832603707400,5.319707275390625,-0.0063913981430232525,0.023967742919921875,-0.017176883295178413
1733141832613733400,5.3297333984375,-0.007456631399691105,0.017576344311237335,-0.013981183059513569
1733141832623766000,5.33976611328125,-0.00852186419069767,0.0047935484908521175,-0.006524552125483751
1733141832633805600,5.3498056640625,-0.007456631399691105,-0.01118494663387537,0.001997311832383275
1733141832643851500,5.3598515625,-0.0063913981430232525,-0.022902509197592735,0.009453942999243736
1733141832653904000,5.36990380859375,-0.0063913981430232525,-0.021837277337908745,0.014780107885599136
1733141832663961600,5.379961669921875,-0.0063913981430232525,-0.013315413147211075,0.010519175790250301
1733141832674024200,5.390024169921875,-0.0063913981430232525,-0.0005326165119186044,0.005193010903894901
1733141832684090400,5.40009033203125,-0.0031956990715116262,0.012250179424881935,-0.0001331541279796511
1733141832694158800,5.410158935546875,-0.0010652330238372087,0.016511112451553345,-0.0001331541279796511
1733141832704228900,5.420228759765625,0.0010652330238372087,0.013315413147211075,0.007323476951569319
1733141832714184200,5.43018408203125,0.0010652330238372087,0.012250179424881935,0.017975807189941406
1733141832724142800,5.440142822265625,0.0053261648863554,0.01118494663387537,0.017975807189941406
1733141832734112800,5.45011279296875,0.009587096981704235,0.01438064593821764,0.012649642303586006
1733141832744096800,5.4600966796875,0.007456631399691105,0.018641578033566475,0.016910573467612267
1733141832754096400,5.470096435546875,0.0031956990715116262,0.013315413147211075,0.022236740216612816
1733141832764110800,5.48011083984375,0.004260932095348835,0.019706811755895615,0.024367205798625946
1733141832774139600,5.4901396484375,0.0063913981430232525,0.030359141528606415,0.020106272771954536
1733141832784180500,5.500180419921875,0.007456631399691105,0.028228675946593285,0.010519175790250301
1733141832794233300,5.5102333984375,0.0063913981430232525,0.021837277337908745,0.008388710208237171
1733141832804297200,5.520297119140625,0.0031956990715116262,0.006924014538526535,0.015845341607928276
1733141832814370600,5.53037060546875,0,-0.0037283156998455524,0.025432437658309937
1733141832824451800,5.540451904296875,0.0010652330238372087,-0.0026630824431777,0.025432437658309937
1733141832834539000,5.5505390625,0.0021304660476744175,0.012250179424881935,0.016910573467612267
1733141832844634400,5.56063427734375,0.0031956990715116262,0.023967742919921875,0.007323476951569319
1733141832854735000,5.570735107421875,0.0010652330238372087,0.020772043615579605,0.005193010903894901
1733141832864809200,5.580809326171875,-0.0010652330238372087,0.01438064593821764,0.010519175790250301
1733141832874873000,5.590873046875,-0.0010652330238372087,0.0026630824431777,0.016910573467612267
1733141832884891100,5.60089111328125,0.0010652330238372087,-0.012250179424881935,0.022236740216612816
1733141832894910000,5.610909912109375,0,-0.019706811755895615,0.025432437658309937
1733141832904930800,5.620930908203125,0,-0.010119713842868805,0.017975807189941406
1733141832914954000,5.6309541015625,0,0.010119713842868805,0.007323476951569319
1733141832924985000,5.640985107421875,-0.0021304660476744175,0.025032976642251015,-0.0033288532868027687
1733141832935020800,5.651020751953125,-0.0031956990715116262,0.031424373388290405,-0.007589785382151604
1733141832945060000,5.66106005859375,-0.0021304660476744175,0.028228675946593285,-0.007589785382151604
1733141832955103000,5.67110302734375,0.0021304660476744175,0.023967742919921875,-0.004394086077809334
1733141832965148700,5.681148681640625,0.0063913981430232525,0.019706811755895615,-0.004394086077809334
1733141832975197400,5.691197509765625,0.00852186419069767,0.013315413147211075,-0.0033288532868027687
1733141832985253600,5.701253662109375,0.00852186419069767,0.006924014538526535,-0.0011983871227130294
1733141832995315200,5.711315185546875,0.00852186419069767,0.00905448105186224,-0.0033288532868027687
1733141833005377000,5.721376953125,0.0063913981430232525,0.012250179424881935,-0.0033288532868027687
1733141833015434000,5.73143408203125,0.004260932095348835,0.016511112451553345,-0.0001331541279796511
1733141833025475600,5.7414755859375,0.004260932095348835,0.019706811755895615,0.007323476951569319
1733141833035516400,5.751516357421875,0.004260932095348835,0.017576344311237335,0.009453942999243736
1733141833045557200,5.76155712890625,0.0031956990715116262,0.010119713842868805,0.009453942999243736
1733141833055598000,5.77159814453125,0.0021304660476744175,0.006924014538526535,0.006258244160562754
1733141833065639200,5.78163916015625,-0.0010652330238372087,0.00585878174751997,0.0009320789249613881
1733141833075680300,5.79168017578125,-0.0063913981430232525,0.0047935484908521175,-0.0011983871227130294
1733141833085721600,5.8017216796875,-0.0063913981430232525,0.0037283156998455524,-0.0001331541279796511
1733141833095763200,5.81176318359375,-0.0031956990715116262,-0.0037283156998455524,0.001997311832383275
1733141833105809400,5.821809326171875,0.0010652330238372087,-0.012250179424881935,0.008388710208237171
1733141833115850800,5.831850830078125,0.004260932095348835,-0.013315413147211075,0.014780107885599136
1733141833125896400,5.841896484375,0.0031956990715116262,-0.010119713842868805,0.015845341607928276
1733141833135935200,5.851935302734375,0.0021304660476744175,-0.0015978495357558131,0.010519175790250301
1733141833145978600,5.861978515625,0.0021304660476744175,0.010119713842868805,0.001997311832383275
1733141833156020000,5.87202001953125,0.0021304660476744175,0.017576344311237335,-0.004394086077809334
1733141833166066000,5.88206591796875,0.0010652330238372087,0.018641578033566475,-0.00226362026296556
1733141833176100600,5.8921005859375,0,0.016511112451553345,0.005193010903894901
1733141833186135300,5.90213525390625,0.004260932095348835,0.01118494663387537,0.012649642303586006
1733141833196170500,5.91217041015625,0.00852186419069767,0.0026630824431777,0.017975807189941406
1733141833206208800,5.922208740234375,0.009587096981704235,-0.0047935484908521175,0.028628136962652206
1733141833216247600,5.93224755859375,0.007456631399691105,-0.01118494663387537,0.035019535571336746
1733141833226292200,5.942292236328125,0.007456631399691105,0.0005326165119186044,0.03288906812667847
1733141833236337400,5.95233740234375,0.007456631399691105,0.021837277337908745,0.021171506494283676
1733141833246388000,5.962387939453125,0.004260932095348835,0.031424373388290405,0.0009320789249613881
1733141833256443100,5.972443115234375,0.0010652330238372087,0.031424373388290405,-0.012915950268507004
1733141833266502100,5.982502197265625,-0.0031956990715116262,0.025032976642251015,-0.006524552125483751
1733141833276564200,5.992564208984375,-0.0053261648863554,0.012250179424881935,0.011584409512579441
1733141833286560500,6.002560546875,-0.004260932095348835,0.00905448105186224,0.030758604407310486
1733141833296563200,6.012563232421875,0,0.016511112451553345,0.041410934180021286
1733141833306573800,6.02257373046875,0.0031956990715116262,0.031424373388290405,0.048867564648389816
1733141833316593200,6.03259326171875,0.0021304660476744175,0.045272402465343475,0.060585130006074905
1733141833326619400,6.042619384765625,0,0.054859500378370285,0.07869409024715424
1733141833336655000,6.052655029296875,0.0010652330238372087,0.054859500378370285,0.09573781490325928
1733141833346700500,6.062700439453125,0,0.045272402465343475,0.1149120107293129
1733141833356755000,6.0727548828125,0.004260932095348835,0.039946239441633224,0.1255643367767334
1733141833366816800,6.082816650390625,0.01384802907705307,0.041011471301317215,0.11917294561862946
1733141833376885800,6.0928857421875,0.01810896210372448,0.048468101769685745,0.1042596846818924
1733141833386960600,6.102960693359375,0.0106523297727108,0.049533337354660034,0.09041165560483932
1733141833397039400,6.113039306640625,-0.004260932095348835,0.046337638050317764,0.08402025699615479
1733141833407120600,6.12312060546875,-0.01491326279938221,0.044207170605659485,0.07656362652778625
1733141833417202700,6.13320263671875,-0.02023942768573761,0.032489608973264694,0.06910699605941772
1733141833427240000,6.143239990234375,-0.02023942768573761,0.0047935484908521175,0.059519894421100616
1733141833437278500,6.153278564453125,-0.0213046595454216,-0.019706811755895615,0.048867564648389816
1733141833447318000,6.163318115234375,-0.0213046595454216,-0.027163442224264145,0.031823836266994476
1733141833457358800,6.17335888671875,-0.02450035884976387,-0.013315413147211075,0.012649642303586006
1733141833467310300,6.183310302734375,-0.02556559257209301,0.017576344311237335,-0.005459319334477186
1733141833477270000,6.19327001953125,-0.02450035884976387,0.043141938745975494,-0.018242115154862404
1733141833487241200,6.2032412109375,-0.01917419396340847,0.053794268518686295,-0.025698747485876083
1733141833497226200,6.213226318359375,-0.01491326279938221,0.049533337354660034,-0.029959678649902344
1733141833507226600,6.2232265625,-0.00852186419069767,0.046337638050317764,-0.033155377954244614
1733141833517238500,6.233238525390625,-0.0053261648863554,0.046337638050317764,-0.03954677656292915
1733141833527267600,6.243267578125,-0.0053261648863554,0.050598569214344025,-0.047003407031297684
1733141833537313800,6.253313720703125,-0.007456631399691105,0.052729032933712006,-0.058720968663692474
1733141833547376000,6.263376220703125,-0.01171756349503994,0.059120431542396545,-0.06937330216169357
1733141833557453000,6.273453125,-0.01491326279938221,0.051663801074028015,-0.08002562820911407
1733141833567542500,6.28354248046875,-0.0159784946590662,0.037815771996974945,-0.08428656309843063
1733141833577642500,6.293642578125,-0.01917419396340847,0.031424373388290405,-0.08322133123874664
1733141833587745000,6.3037451171875,-0.02343512699007988,0.029293907806277275,-0.0778951644897461
1733141833597852700,6.313852783203125,-0.02236989326775074,0.026098208501935005,-0.066177599132061
1733141833607962400,6.32396240234375,-0.0213046595454216,0.0079892473295331,-0.048068638890981674
1733141833618055200,6.33405517578125,-0.0159784946590662,-0.01438064593821764,-0.026763979345560074
1733141833628097000,6.344096923828125,-0.0106523297727108,-0.033554840832948685,-0.006524552125483751
1733141833638138600,6.354138671875,-0.007456631399691105,-0.044207170605659485,0.008388710208237171
1733141833648180500,6.364180419921875,-0.0031956990715116262,-0.045272402465343475,0.011584409512579441
1733141833658222000,6.37422216796875,0,-0.038881003856658936,0.006258244160562754
1733141833668263700,6.384263671875,0.0021304660476744175,-0.033554840832948685,0.007323476951569319
1733141833678305300,6.39430517578125,0.0031956990715116262,-0.041011471301317215,0.009453942999243736
1733141833688347100,6.40434716796875,0.004260932095348835,-0.043141938745975494,0.009453942999243736
1733141833698388700,6.414388671875,0.0053261648863554,-0.043141938745975494,0.005193010903894901
1733141833708430600,6.4244306640625,0.0021304660476744175,-0.049533337354660034,-0.007589785382151604
1733141833718448400,6.434448486328125,-0.0053261648863554,-0.0633813664317131,-0.021437814459204674
1733141833728468000,6.444468017578125,-0.01171756349503994,-0.0740336924791336,-0.026763979345560074
1733141833738490600,6.45449072265625,-0.01917419396340847,-0.08255556225776672,-0.028894444927573204
1733141833748516600,6.4645166015625,-0.02556559257209301,-0.09107742458581924,-0.031024912372231483
1733141833758546200,6.474546142578125,-0.03089175745844841,-0.09746882319450378,-0.03209014609456062
1733141833768561000,6.484560791015625,-0.03515268862247467,-0.10279498994350433,-0.028894444927573204
1733141833778581200,6.494581298828125,-0.03515268862247467,-0.10386022180318832,-0.020372580736875534
1733141833788608300,6.504608154296875,-0.03728315606713295,-0.10492545366287231,-0.012915950268507004
1733141833798642000,6.514641845703125,-0.04047885537147522,-0.10066451877355576,-0.009720250964164734
1733141833808682500,6.5246826171875,-0.04367455467581749,-0.08681648969650269,-0.006524552125483751
1733141833818729700,6.534729736328125,-0.0426093190908432,-0.058055199682712555,0.001997311832383275
1733141833828783000,6.544783203125,-0.03941362351179123,-0.028228675946593285,0.009453942999243736
1733141833838842000,6.554842041015625,-0.03515268862247467,-0.0047935484908521175,0.014780107885599136
1733141833848905500,6.564905517578125,-0.03302222490310669,0.012250179424881935,0.021171506494283676
1733141833858972200,6.57497216796875,-0.03408745676279068,0.01438064593821764,0.028628136962652206
1733141833869041400,6.58504150390625,-0.03515268862247467,0.00585878174751997,0.03608476743102074
1733141833879111700,6.595111572265625,-0.0319569893181324,-0.0005326165119186044,0.044606633484363556
1733141833889181000,6.605180908203125,-0.02663082629442215,-0.0005326165119186044,0.047802332788705826
1733141833899223000,6.61522314453125,-0.01917419396340847,0.006924014538526535,0.045671865344047546
1733141833909265000,6.625264892578125,-0.0159784946590662,0.018641578033566475,0.03928046673536301
1733141833919306200,6.63530615234375,-0.02343512699007988,0.032489608973264694,0.030758604407310486
1733141833929347600,6.64534765625,-0.03621792420744896,0.051663801074028015,0.017975807189941406
1733141833939270400,6.6552705078125,-0.04900071769952774,0.07083799690008163,0.009453942999243736
1733141833949203000,6.665202880859375,-0.05965305119752884,0.07616416364908218,0.004127778112888336
1733141833959148800,6.675148681640625,-0.06817491352558136,0.06764229387044907,0.005193010903894901
1733141833969107000,6.68510693359375,-0.06924014538526535,0.054859500378370285,0.008388710208237171
1733141833979084500,6.69508447265625,-0.06710968166589737,0.047402869910001755,0.011584409512579441
1733141833989083400,6.70508349609375,-0.06284874677658081,0.045272402465343475,0.009453942999243736
1733141833999104800,6.715104736328125,-0.06178351491689682,0.050598569214344025,0.004127778112888336
1733141834009148200,6.725148193359375,-0.0639139786362648,0.062316130846738815,-0.004394086077809334
1733141834019213000,6.735213134765625,-0.06604444980621338,0.06870753318071365,-0.013981183059513569
1733141834029297200,6.745297119140625,-0.06710968166589737,0.06870753318071365,-0.017176883295178413
1733141834039398400,6.7553984375,-0.06497921794652939,0.06657706201076508,-0.020372580736875534
1733141834049513500,6.765513427734375,-0.0639139786362648,0.0633813664317131,-0.023568280041217804
1733141834059639000,6.77563916015625,-0.06178351491689682,0.059120431542396545,-0.028894444927573204
1733141834069766400,6.785766357421875,-0.05752258375287056,0.058055199682712555,-0.034220609813928604
1733141834079897000,6.79589697265625,-0.04900071769952774,0.062316130846738815,-0.03848154470324516
1733141834090015000,6.806014892578125,-0.04473978653550148,0.06977276504039764,-0.036351077258586884
1733141834100056600,6.816056640625,-0.04580501839518547,0.0644465982913971,-0.028894444927573204
1733141834110098400,6.826098388671875,-0.04687025398015976,0.045272402465343475,-0.015046416781842709
1733141834120140000,6.83614013671875,-0.05219641700387001,0.023967742919921875,-0.005459319334477186
1733141834130181600,6.846181640625,-0.05752258375287056,0.006924014538526535,0.005193010903894901
1733141834140223500,6.856223388671875,-0.06497921794652939,-0.00585878174751997,0.013714875094592571
1733141834150265000,6.86626513671875,-0.06604444980621338,-0.013315413147211075,0.019041040912270546
1733141834160307000,6.876306884765625,-0.05752258375287056,0.0026630824431777,0.023301972076296806
1733141834170229200,6.886229248046875,-0.04473978653550148,0.027163442224264145,0.021171506494283676
1733141834180161300,6.896161376953125,-0.0319569893181324,0.029293907806277275,0.012649642303586006
1733141834190106600,6.906106689453125,-0.02450035884976387,0.028228675946593285,0.001997311832383275
1733141834200068900,6.91606884765625,-0.02023942768573761,0.026098208501935005,-0.005459319334477186
1733141834210050300,6.92605029296875,-0.02023942768573761,0.020772043615579605,-0.006524552125483751
1733141834220052700,6.936052734375,-0.01917419396340847,0.026098208501935005,-0.015046416781842709
1733141834230077000,6.946076904296875,-0.0159784946590662,0.031424373388290405,-0.025698747485876083
1733141834240123000,6.956122802734375,-0.0106523297727108,0.036750540137290955,-0.033155377954244614
1733141834250189000,6.96618896484375,-0.007456631399691105,0.036750540137290955,-0.036351077258586884
1733141834260274200,6.976274169921875,-0.0063913981430232525,0.030359141528606415,-0.034220609813928604
1733141834270375400,6.98637548828125,-0.004260932095348835,0.027163442224264145,-0.031024912372231483
1733141834280490000,6.996489990234375,0,0.029293907806277275,-0.034220609813928604
1733141834290614300,7.0066142578125,0.0053261648863554,0.030359141528606415,-0.040612008422613144
1733141834300744700,7.01674462890625,0.01171756349503994,0.033554840832948685,-0.044872939586639404
1733141834310877200,7.026877197265625,0.01384802907705307,0.031424373388290405,-0.04274247586727142
1733141834320973800,7.036973876953125,0.01491326279938221,0.025032976642251015,-0.026763979345560074
1733141834331015700,7.047015625,0.01384802907705307,0.012250179424881935,-0.007589785382151604
1733141834341057500,7.0570576171875,0.01384802907705307,-0.0026630824431777,0.010519175790250301
1733141834351099400,7.067099365234375,0.01384802907705307,-0.01438064593821764,0.022236740216612816
1733141834361140700,7.077140625,0.012782796286046505,-0.023967742919921875,0.026497671380639076
1733141834371063300,7.087063232421875,0.00852186419069767,-0.033554840832948685,0.024367205798625946
1733141834380995300,7.096995361328125,0.0063913981430232525,-0.034620072692632675,0.019041040912270546
1733141834390941000,7.10694091796875,0.004260932095348835,-0.032489608973264694,0.009453942999243736
1733141834400903400,7.1169033203125,0.0010652330238372087,-0.025032976642251015,0.006258244160562754
1733141834410885400,7.126885498046875,-0.0031956990715116262,-0.015445878729224205,0.008388710208237171
1733141834420888000,7.13688818359375,-0.0053261648863554,-0.00585878174751997,0.015845341607928276
1733141834430912500,7.14691259765625,-0.0031956990715116262,0.0026630824431777,0.022236740216612816
1733141834440958500,7.15695849609375,0.0010652330238372087,0.00585878174751997,0.025432437658309937
1733141834451024600,7.167024658203125,0.004260932095348835,0.0005326165119186044,0.026497671380639076
1733141834461109800,7.17710986328125,0.00852186419069767,-0.0015978495357558131,0.025432437658309937
1733141834471211000,7.1872109375,0.01384802907705307,-0.0026630824431777,0.026497671380639076
1733141834481325000,7.197324951171875,0.01491326279938221,-0.00905448105186224,0.03288906812667847
1733141834491444500,7.207444580078125,0.01491326279938221,-0.01438064593821764,0.042476166039705276
1733141834501570000,7.217570068359375,0.01384802907705307,-0.01438064593821764,0.04993279650807381
1733141834511645700,7.227645751953125,0.012782796286046505,-0.016511112451553345,0.050998032093048096
1733141834521724700,7.237724609375,0.007456631399691105,-0.017576344311237335,0.045671865344047546
1733141834531731000,7.24773095703125,0.0021304660476744175,-0.012250179424881935,0.035019535571336746
1733141834541743000,7.2577431640625,-0.0031956990715116262,-0.0047935484908521175,0.025432437658309937
1733141834551758000,7.267758056640625,-0.00852186419069767,0.00585878174751997,0.024367205798625946
1733141834561780700,7.27778076171875,-0.00852186419069767,0.016511112451553345,0.028628136962652206
1733141834571812000,7.28781201171875,-0.0063913981430232525,0.017576344311237335,0.03288906812667847
1733141834581852000,7.297851806640625,-0.004260932095348835,0.0079892473295331,0.03288906812667847
1733141834591900200,7.307900146484375,-0.0053261648863554,-0.00905448105186224,0.033954303711652756
1733141834601951000,7.317950927734375,-0.012782796286046505,-0.020772043615579605,0.040345702320337296
1733141834612009500,7.328009521484375,-0.0159784946590662,-0.021837277337908745,0.045671865344047546
1733141834622069000,7.338069091796875,-0.012782796286046505,-0.00905448105186224,0.044606633484363556
1733141834632134400,7.348134521484375,-0.0031956990715116262,-0.0026630824431777,0.03288906812667847
1733141834642204000,7.358203857421875,0.004260932095348835,-0.0037283156998455524,0.020106272771954536
1733141834652276500,7.3682763671875,0.0063913981430232525,-0.0047935484908521175,0.011584409512579441
1733141834662350800,7.378350830078125,0.0053261648863554,-0.016511112451553345,0.016910573467612267
1733141834672425500,7.388425537109375,-0.0021304660476744175,-0.020772043615579605,0.029693370684981346
1733141834682476000,7.39847607421875,-0.0063913981430232525,-0.013315413147211075,0.035019535571336746
1733141834692518100,7.40851806640625,-0.0031956990715116262,0.0026630824431777,0.027562905102968216
1733141834702559200,7.418559326171875,0.004260932095348835,0.015445878729224205,0.012649642303586006
1733141834712515300,7.428515380859375,0.0063913981430232525,0.015445878729224205,0.001997311832383275
1733141834722478000,7.43847802734375,0.007456631399691105,0.012250179424881935,-0.004394086077809334
1733141834732446000,7.448446044921875,0.0063913981430232525,0.013315413147211075,-0.007589785382151604
1733141834742426000,7.458426025390625,0.0053261648863554,0.015445878729224205,-0.012915950268507004
1733141834752416000,7.468416015625,0.0053261648863554,0.015445878729224205,-0.015046416781842709
1733141834762421800,7.478421875,0.0031956990715116262,0.015445878729224205,-0.011850717477500439
1733141834772439800,7.488439697265625,0.0031956990715116262,0.015445878729224205,-0.005459319334477186
1733141834782475300,7.498475341796875,0,0.01438064593821764,0.001997311832383275
1733141834792522500,7.5085224609375,0.0010652330238372087,0.012250179424881935,0.0030625448562204838
1733141834802586400,7.51858642578125,0.0010652330238372087,0.01118494663387537,0.005193010903894901
1733141834812660000,7.528659912109375,0.0010652330238372087,0.01118494663387537,0.005193010903894901
1733141834822746600,7.53874658203125,0.0063913981430232525,0.012250179424881935,-0.0011983871227130294
1733141834832839000,7.5488388671875,0.007456631399691105,0.010119713842868805,-0.006524552125483751
1733141834842935000,7.55893505859375,0.0053261648863554,0.0026630824431777,-0.007589785382151604
1733141834853037300,7.569037353515625,0.0031956990715116262,-0.0005326165119186044,-0.006524552125483751
1733141834863143000,7.579142822265625,0.0010652330238372087,0.0015978495357558131,-0.0001331541279796511
1733141834873147600,7.589147705078125,0.0021304660476744175,0.00585878174751997,0.008388710208237171
1733141834883158800,7.59915869140625,0.004260932095348835,0.012250179424881935,0.014780107885599136
1733141834893177000,7.609177001953125,0.0063913981430232525,0.01118494663387537,0.012649642303586006
1733141834903203000,7.619203125,0.0063913981430232525,0.006924014538526535,0.008388710208237171
1733141834913237500,7.629237548828125,0.004260932095348835,-0.0015978495357558131,-0.0001331541279796511
1733141834923280000,7.63927978515625,0.0031956990715116262,-0.010119713842868805,-0.007589785382151604
1733141834933330000,7.649329833984375,0.0031956990715116262,-0.010119713842868805,-0.013981183059513569
1733141834943387400,7.659387451171875,0.0021304660476744175,-0.012250179424881935,-0.018242115154862404
1733141834953451000,7.669450927734375,0.0010652330238372087,-0.010119713842868805,-0.018242115154862404
1733141834963514600,7.6795146484375,-0.0010652330238372087,-0.00585878174751997,-0.010785484686493874
1733141834973582800,7.689582763671875,-0.0021304660476744175,-0.0047935484908521175,-0.0001331541279796511
1733141834983654000,7.69965380859375,0,-0.0037283156998455524,0.008388710208237171
1733141834993649000,7.70964892578125,0.0063913981430232525,-0.006924014538526535,0.009453942999243736
1733141835003650300,7.719650390625,0.012782796286046505,-0.01118494663387537,0.005193010903894901
1733141835013659600,7.72965966796875,0.0159784946590662,-0.00905448105186224,-0.0033288532868027687
1733141835023678000,7.739677978515625,0.01384802907705307,0.0026630824431777,-0.011850717477500439
1733141835033706000,7.7497060546875,0.01171756349503994,0.010119713842868805,-0.023568280041217804
1733141835043743500,7.759743408203125,0.01384802907705307,0.0079892473295331,-0.036351077258586884
1733141835053790500,7.76979052734375,0.01491326279938221,0.012250179424881935,-0.03848154470324516
1733141835063841500,7.779841552734375,0.01171756349503994,0.0079892473295331,-0.028894444927573204
1733141835073896000,7.78989599609375,0.0106523297727108,0.01118494663387537,-0.012915950268507004
1733141835083958300,7.799958251953125,0.01704372838139534,0.025032976642251015,-0.009720250964164734
1733141835094027300,7.81002734375,0.02876129187643528,0.030359141528606415,-0.024633513763546944
1733141835104101000,7.82010107421875,0.03302222490310669,0.032489608973264694,-0.036351077258586884
1733141835114178800,7.8301787109375,0.02876129187643528,0.023967742919921875,-0.03848154470324516
1733141835124258800,7.8402587890625,0.02236989326775074,0.013315413147211075,-0.029959678649902344
1733141835134339000,7.850339111328125,0.01917419396340847,0.015445878729224205,-0.016111649572849274
1733141835144272600,7.860272705078125,0.02023942768573761,0.023967742919921875,-0.008655018173158169
1733141835154215200,7.870215087890625,0.0213046595454216,0.023967742919921875,-0.005459319334477186
1733141835164165600,7.88016552734375,0.01917419396340847,0.018641578033566475,-0.0033288532868027687
1733141835174127400,7.89012744140625,0.01384802907705307,0.013315413147211075,-0.004394086077809334
1733141835184104400,7.9001044921875,0.007456631399691105,0.012250179424881935,-0.0033288532868027687
1733141835194097400,7.910097412109375,0.004260932095348835,0.01118494663387537,-0.0011983871227130294
1733141835204108000,7.92010791015625,0.0031956990715116262,0.010119713842868805,0.0009320789249613881
1733141835214136300,7.93013623046875,0.0031956990715116262,0.00905448105186224,0.0009320789249613881
1733141835224182300,7.940182373046875,0.0053261648863554,0.010119713842868805,0.001997311832383275
1733141835234244900,7.950244873046875,0.0063913981430232525,0.013315413147211075,0.005193010903894901
1733141835244322800,7.96032275390625,0.0063913981430232525,0.017576344311237335,0.004127778112888336
1733141835254414000,7.9704140625,0.0031956990715116262,0.020772043615579605,0.006258244160562754
1733141835264518400,7.980518310546875,0.0021304660476744175,0.027163442224264145,0.009453942999243736
1733141835274631700,7.990631591796875,0.0053261648863554,0.036750540137290955,0.008388710208237171
1733141835284749600,8.00074951171875,0.00852186419069767,0.037815771996974945,0.0030625448562204838
1733141835294868700,8.01086865234375,0.007456631399691105,0.026098208501935005,0.0030625448562204838
1733141835304939300,8.020939208984375,0.0053261648863554,0.013315413147211075,0.0030625448562204838
1733141835314981400,8.0309814453125,0.0031956990715116262,0.016511112451553345,0.001997311832383275
1733141835325023200,8.041023193359376,0.004260932095348835,0.031424373388290405,0.0030625448562204838
1733141835335065000,8.051065185546875,0.004260932095348835,0.045272402465343475,0.001997311832383275
1733141835345108700,8.061108642578125,0.0031956990715116262,0.050598569214344025,-0.0011983871227130294
1733141835355148300,8.071148193359376,0.0031956990715116262,0.050598569214344025,-0.005459319334477186
1733141835365189000,8.081189208984375,0.0053261648863554,0.050598569214344025,-0.006524552125483751
1733141835375234800,8.09123486328125,0.004260932095348835,0.048468101769685745,-0.007589785382151604
1733141835385284900,8.101284912109374,0.0021304660476744175,0.035685304552316666,-0.005459319334477186
1733141835395338800,8.1113388671875,0.0010652330238372087,0.020772043615579605,-0.0011983871227130294
1733141835405396500,8.121396484375,0,0.01118494663387537,-0.0001331541279796511
1733141835415454200,8.1314541015625,0.0010652330238372087,0.0047935484908521175,-0.0001331541279796511
1733141835425452300,8.141452392578126,0.0010652330238372087,0.0037283156998455524,0.001997311832383275
1733141835435451600,8.15145166015625,0.0031956990715116262,0.006924014538526535,0.0030625448562204838
1733141835445453800,8.161453857421876,0.009587096981704235,0.01438064593821764,0.001997311832383275
1733141835455460400,8.17146044921875,0.0159784946590662,0.020772043615579605,-0.0011983871227130294
1733141835465472500,8.181472412109375,0.02023942768573761,0.025032976642251015,-0.004394086077809334
1733141835475491000,8.191490966796875,0.0213046595454216,0.027163442224264145,-0.00226362026296556
1733141835485517000,8.20151708984375,0.02343512699007988,0.028228675946593285,0.007323476951569319
1733141835495550500,8.211550537109375,0.02556559257209301,0.023967742919921875,0.009453942999243736
1733141835505596200,8.22159619140625,0.02663082629442215,0.020772043615579605,0.004127778112888336
1733141835515648800,8.231648681640625,0.02343512699007988,0.020772043615579605,0.008388710208237171
1733141835525712600,8.241712646484375,0.01917419396340847,0.01118494663387537,0.008388710208237171
1733141835535781000,8.251781005859375,0.0159784946590662,0.015445878729224205,0.006258244160562754
1733141835545858000,8.261858154296876,0.01917419396340847,0.021837277337908745,-0.005459319334477186
1733141835555937000,8.27193701171875,0.0213046595454216,0.01438064593821764,-0.024633513763546944
1733141835566021000,8.282021240234375,0.02023942768573761,0.010119713842868805,-0.03528584539890289
1733141835576066300,8.29206640625,0.01491326279938221,0.0026630824431777,-0.03209014609456062
1733141835586116000,8.3021162109375,0.01171756349503994,0.0015978495357558131,-0.019307348877191544
1733141835596149500,8.3121494140625,0.007456631399691105,0.010119713842868805,-0.008655018173158169
1733141835606183400,8.322183349609375,0.0031956990715116262,0.01438064593821764,-0.005459319334477186
1733141835616218000,8.332218017578125,0.004260932095348835,0.012250179424881935,-0.009720250964164734
1733141835626258200,8.342258056640626,0.0063913981430232525,0.0047935484908521175,-0.013981183059513569
1733141835636299300,8.35229931640625,0.009587096981704235,0.0015978495357558131,-0.013981183059513569
1733141835646345500,8.362345458984375,0.0106523297727108,0.0047935484908521175,-0.011850717477500439
1733141835656397000,8.37239697265625,0.007456631399691105,0.010119713842868805,-0.008655018173158169
1733141835666452700,8.38245263671875,0.0031956990715116262,0.015445878729224205,-0.007589785382151604
1733141835676483300,8.3924833984375,-0.0010652330238372087,0.013315413147211075,-0.0033288532868027687
1733141835686519000,8.40251904296875,-0.0031956990715116262,0.00585878174751997,0.005193010903894901
1733141835696559900,8.412559814453125,-0.0031956990715116262,-0.0026630824431777,0.015845341607928276
1733141835706601000,8.42260107421875,-0.0031956990715116262,-0.00585878174751997,0.025432437658309937
1733141835716647200,8.432647216796875,-0.0031956990715116262,-0.0026630824431777,0.027562905102968216
1733141835726698200,8.4426982421875,-0.0031956990715116262,0.0047935484908521175,0.026497671380639076
1733141835736753200,8.452753173828125,-0.0021304660476744175,0.016511112451553345,0.021171506494283676
1733141835746811600,8.462811767578126,0,0.028228675946593285,0.013714875094592571
1733141835756872700,8.472872802734376,0.0010652330238372087,0.031424373388290405,0.010519175790250301
1733141835766935600,8.482935546875,-0.0010652330238372087,0.015445878729224205,0.011584409512579441
1733141835776899800,8.49289990234375,-0.0053261648863554,0.0015978495357558131,0.022236740216612816
1733141835786871800,8.502871826171875,-0.007456631399691105,-0.0005326165119186044,0.031823836266994476
1733141835796854300,8.512854248046875,-0.009587096981704235,0.0026630824431777,0.038215234875679016
1733141835806849000,8.52284912109375,-0.012782796286046505,0.006924014538526535,0.042476166039705276
1733141835816857600,8.532857666015625,-0.01384802907705307,0.012250179424881935,0.040345702320337296
1733141835826880500,8.542880615234376,-0.0159784946590662,0.012250179424881935,0.03608476743102074
1733141835836918000,8.55291796875,-0.01810896210372448,0.010119713842868805,0.033954303711652756
1733141835846965000,8.562965087890625,-0.02236989326775074,0.0037283156998455524,0.037150003015995026
1733141835857025500,8.573025634765624,-0.02450035884976387,-0.0005326165119186044,0.044606633484363556
1733141835867098400,8.583098388671875,-0.02663082629442215,-0.0026630824431777,0.05312849581241608
1733141835877177000,8.593177001953125,-0.02450035884976387,-0.0047935484908521175,0.058454662561416626
1733141835887264800,8.6032646484375,-0.02343512699007988,-0.00905448105186224,0.05632419511675835
1733141835897358800,8.61335888671875,-0.0213046595454216,-0.00905448105186224,0.048867564648389816
1733141835907441400,8.62344140625,-0.02023942768573761,-0.0026630824431777,0.035019535571336746
1733141835917527000,8.633527099609376,-0.01917419396340847,0.00585878174751997,0.022236740216612816
1733141835927614000,8.643614013671876,-0.02023942768573761,0.012250179424881935,0.019041040912270546
1733141835937687000,8.65368701171875,-0.0213046595454216,0.018641578033566475,0.023301972076296806
1733141835947731200,8.663731201171874,-0.0213046595454216,0.025032976642251015,0.030758604407310486
1733141835957770500,8.6737705078125,-0.012782796286046505,0.025032976642251015,0.029693370684981346
1733141835967810000,8.68381005859375,-0.004260932095348835,0.029293907806277275,0.027562905102968216
1733141835977849600,8.693849609375,0.0010652330238372087,0.033554840832948685,0.03288906812667847
1733141835987889700,8.7038896484375,0.0053261648863554,0.022902509197592735,0.038215234875679016
1733141835997929700,8.7139296875,0.0053261648863554,0.021837277337908745,0.03928046673536301
1733141836007858700,8.723858642578126,0.0021304660476744175,0.016511112451553345,0.026497671380639076
1733141836017796900,8.733796875,-0.0021304660476744175,0.01118494663387537,0.0030625448562204838
1733141836027748000,8.743748046875,-0.00852186419069767,0.01118494663387537,-0.009720250964164734
1733141836037715500,8.753715576171874,-0.01171756349503994,0.00585878174751997,-0.008655018173158169
1733141836047701200,8.763701171875,-0.012782796286046505,-0.0015978495357558131,0.005193010903894901
1733141836057707300,8.773707275390626,-0.012782796286046505,-0.0079892473295331,0.020106272771954536
1733141836067733800,8.783733642578126,-0.0106523297727108,-0.0047935484908521175,0.021171506494283676
1733141836077780700,8.79378076171875,-0.0063913981430232525,0.0037283156998455524,0.012649642303586006
1733141836087847200,8.80384716796875,-0.0053261648863554,0.006924014538526535,0.004127778112888336
1733141836097931000,8.813930908203124,-0.0053261648863554,-0.0005326165119186044,0.001997311832383275
1733141836108025300,8.824025390625,-0.004260932095348835,-0.006924014538526535,0.005193010903894901
1733141836118132500,8.834132568359376,-0.0063913981430232525,-0.013315413147211075,0.011584409512579441
1733141836128249000,8.8442490234375,-0.00852186419069767,-0.01118494663387537,0.016910573467612267
1733141836138371800,8.854371826171874,-0.0106523297727108,-0.00585878174751997,0.019041040912270546
1733141836148497400,8.864497314453125,-0.012782796286046505,0.0005326165119186044,0.017975807189941406
1733141836158603800,8.874603759765625,-0.0106523297727108,0.0037283156998455524,0.015845341607928276
1733141836168645600,8.884645751953125,-0.00852186419069767,0.0079892473295331,0.012649642303586006
1733141836178687200,8.894687255859376,-0.0063913981430232525,0.00905448105186224,0.009453942999243736
1733141836188729000,8.90472900390625,-0.0063913981430232525,0.0037283156998455524,0.010519175790250301
1733141836198770700,8.914770751953125,-0.00852186419069767,0.006924014538526535,0.007323476951569319
1733141836208691700,8.924691650390624,-0.01171756349503994,0.010119713842868805,0.0009320789249613881
1733141836218622500,8.93462255859375,-0.01917419396340847,0.006924014538526535,-0.00226362026296556
1733141836228567000,8.944567138671875,-0.02663082629442215,0.00905448105186224,0.0030625448562204838
1733141836238528500,8.954528564453126,-0.02769605815410614,0.00585878174751997,0.005193010903894901
1733141836248504800,8.9645048828125,-0.02343512699007988,0.01118494663387537,0.007323476951569319
1733141836258502700,8.974502685546875,-0.01917419396340847,0.015445878729224205,0.008388710208237171
1733141836268523000,8.98452294921875,-0.01810896210372448,0.00905448105186224,0.011584409512579441
1733141836278561000,8.99456103515625,-0.01704372838139534,0.018641578033566475,0.007323476951569319
1733141836288616000,9.004615966796875,-0.01171756349503994,0.028228675946593285,-0.0011983871227130294
1733141836298691800,9.01469189453125,-0.0063913981430232525,0.027163442224264145,-0.005459319334477186
1733141836308786000,9.024785888671875,-0.0053261648863554,0.015445878729224205,-0.0011983871227130294
1733141836318895600,9.0348955078125,-0.0063913981430232525,0.00585878174751997,0.0030625448562204838
1733141836329017900,9.045017822265624,-0.004260932095348835,0.0047935484908521175,0.0030625448562204838
1733141836339148300,9.055148193359376,0.0010652330238372087,0.013315413147211075,-0.006524552125483751
1733141836349283600,9.06528369140625,0.0053261648863554,0.021837277337908745,-0.019307348877191544
1733141836359419600,9.075419677734375,0.0053261648863554,0.026098208501935005,-0.025698747485876083
1733141836369479400,9.0854794921875,0.0063913981430232525,0.022902509197592735,-0.026763979345560074
1733141836379402000,9.095402099609375,0.00852186419069767,0.015445878729224205,-0.024633513763546944
1733141836389329200,9.1053291015625,0.007456631399691105,0.01118494663387537,-0.015046416781842709
1733141836399270100,9.115270263671874,0.007456631399691105,0.013315413147211075,-0.0011983871227130294
1733141836409228500,9.125228515625,0.00852186419069767,0.017576344311237335,0.0009320789249613881
1733141836419207200,9.135207275390625,0.01384802907705307,0.019706811755895615,-0.009720250964164734
1733141836429207300,9.145207275390625,0.01491326279938221,0.029293907806277275,-0.017176883295178413
1733141836439230200,9.155230224609374,0.01491326279938221,0.029293907806277275,-0.018242115154862404
1733141836449275100,9.165275146484374,0.012782796286046505,0.020772043615579605,-0.016111649572849274
1733141836459341800,9.175341796875,0.009587096981704235,0.033554840832948685,-0.020372580736875534
1733141836469428000,9.185427978515625,0.0106523297727108,0.043141938745975494,-0.033155377954244614
1733141836479531000,9.195531005859374,0.007456631399691105,0.037815771996974945,-0.050199106335639954
1733141836489647900,9.20564794921875,0.0053261648863554,0.021837277337908745,-0.053394805639982224
1733141836499775000,9.21577490234375,0.0010652330238372087,0.0026630824431777,-0.040612008422613144
1733141836509908700,9.22590869140625,0,-0.0005326165119186044,-0.022503048181533813
1733141836520044800,9.236044921875,0.0010652330238372087,0.016511112451553345,-0.015046416781842709
1733141836530146300,9.246146240234374,0.0010652330238372087,0.038881003856658936,-0.021437814459204674
1733141836540188200,9.256188232421875,-0.0010652330238372087,0.053794268518686295,-0.03209014609456062
1733141836550108700,9.266108642578125,-0.0010652330238372087,0.056989967823028564,-0.034220609813928604
1733141836560039000,9.276038818359375,0.0010652330238372087,0.052729032933712006,-0.03209014609456062
1733141836569983000,9.28598291015625,0.0031956990715116262,0.038881003856658936,-0.024633513763546944
1733141836579944200,9.295944091796875,0.0021304660476744175,0.028228675946593285,-0.016111649572849274
1733141836589924900,9.3059248046875,0.0021304660476744175,0.023967742919921875,-0.012915950268507004
1733141836599927000,9.315927001953124,0.004260932095348835,0.031424373388290405,-0.016111649572849274
1733141836609951200,9.325951171875,0.009587096981704235,0.047402869910001755,-0.018242115154862404
1733141836619997200,9.3359970703125,0.01491326279938221,0.060185667127370834,-0.021437814459204674
1733141836630059000,9.34605908203125,0.01917419396340847,0.06657706201076508,-0.024633513763546944
1733141836640140300,9.356140380859374,0.02343512699007988,0.061250898987054825,-0.024633513763546944
1733141836650238500,9.366238525390624,0.02769605815410614,0.058055199682712555,-0.019307348877191544
1733141836660350700,9.376350830078126,0.0319569893181324,0.055924732238054276,-0.017176883295178413
1733141836670473700,9.3864736328125,0.0319569893181324,0.048468101769685745,-0.016111649572849274
1733141836680604000,9.39660400390625,0.02982652559876442,0.035685304552316666,-0.016111649572849274
1733141836690737200,9.406737060546876,0.02769605815410614,0.022902509197592735,-0.012915950268507004
1733141836700855300,9.416855224609375,0.02343512699007988,0.01438064593821764,-0.009720250964164734
1733141836710897000,9.42689697265625,0.01917419396340847,0.012250179424881935,-0.00226362026296556
1733141836720938500,9.4369384765625,0.01810896210372448,0.012250179424881935,0.0030625448562204838
1733141836730861800,9.44686181640625,0.0213046595454216,0.017576344311237335,0.0030625448562204838
1733141836740794400,9.45679443359375,0.02236989326775074,0.022902509197592735,0.0009320789249613881
1733141836750740500,9.466740478515625,0.02556559257209301,0.022902509197592735,0.001997311832383275
1733141836760698400,9.476698486328125,0.02556559257209301,0.016511112451553345,0.004127778112888336
1733141836770676200,9.48667626953125,0.02450035884976387,0.01118494663387537,0.007323476951569319
1733141836780675000,9.496675048828125,0.02450035884976387,0.01118494663387537,0.009453942999243736
1733141836790696400,9.506696533203124,0.02343512699007988,0.01118494663387537,0.010519175790250301
1733141836800739800,9.51673974609375,0.0213046595454216,0.010119713842868805,0.012649642303586006
1733141836810804500,9.526804443359374,0.01810896210372448,0.010119713842868805,0.014780107885599136
1733141836820888600,9.536888671875,0.0159784946590662,0.00905448105186224,0.016910573467612267
1733141836830989800,9.54698974609375,0.01491326279938221,0.0079892473295331,0.015845341607928276
1733141836841104600,9.557104736328125,0.01384802907705307,0.010119713842868805,0.013714875094592571
1733141836851230000,9.56722998046875,0.0106523297727108,0.01118494663387537,0.008388710208237171
1733141836861357300,9.577357421875,0.00852186419069767,0.015445878729224205,0.009453942999243736
1733141836871487700,9.58748779296875,0.0063913981430232525,0.021837277337908745,0.014780107885599136
1733141836881605600,9.597605712890624,0.0063913981430232525,0.016511112451553345,0.014780107885599136
1733141836891647500,9.6076474609375,0.009587096981704235,0.015445878729224205,0.013714875094592571
1733141836901568800,9.61756884765625,0.01171756349503994,0.012250179424881935,0.019041040912270546
1733141836911497500,9.62749755859375,0.0106523297727108,-0.006924014538526535,0.021171506494283676
1733141836921440000,9.63743994140625,0.0053261648863554,-0.010119713842868805,0.020106272771954536
1733141836931400000,9.64739990234375,0.004260932095348835,0.01118494663387537,0.013714875094592571
1733141836941379800,9.6573798828125,0.004260932095348835,0.027163442224264145,-0.00226362026296556
1733141836951376100,9.667376220703124,0.0053261648863554,0.031424373388290405,-0.012915950268507004
1733141836961395200,9.677395263671874,0.009587096981704235,0.017576344311237335,-0.011850717477500439
1733141836971437000,9.68743701171875,0.012782796286046505,-0.0047935484908521175,0.0009320789249613881
1733141836981500700,9.697500732421876,0.01491326279938221,-0.013315413147211075,0.009453942999243736
1733141836991584000,9.707583984375,0.0159784946590662,-0.0079892473295331,0.007323476951569319
1733141837001685000,9.71768505859375,0.01491326279938221,0.0037283156998455524,0.0009320789249613881
1733141837011800600,9.727800537109376,0.0106523297727108,0.01118494663387537,-0.00226362026296556
1733141837021927200,9.73792724609375,0.007456631399691105,0.01118494663387537,-0.0011983871227130294
1733141837032060700,9.748060791015625,0.0063913981430232525,0.00905448105186224,0.0030625448562204838
1733141837042153700,9.75815380859375,0.007456631399691105,0.00905448105186224,0.0030625448562204838
1733141837052249600,9.76824951171875,0.0106523297727108,0.010119713842868805,0.0009320789249613881
1733141837062345700,9.778345703125,0.012782796286046505,0.01438064593821764,-0.004394086077809334
1733141837072398300,9.7883984375,0.012782796286046505,0.019706811755895615,-0.006524552125483751
1733141837082439400,9.798439453125,0.012782796286046505,0.018641578033566475,-0.006524552125483751
1733141837092361700,9.80836181640625,0.0106523297727108,0.00905448105186224,-0.0011983871227130294
1733141837102293800,9.818293701171875,0.00852186419069767,0.0015978495357558131,0.0030625448562204838
1733141837112237000,9.828237060546876,0.0063913981430232525,-0.0047935484908521175,0.004127778112888336
1733141837122197500,9.838197509765624,0.004260932095348835,0.0005326165119186044,0.0030625448562204838
1733141837132172500,9.848172607421875,0,0.0047935484908521175,-0.0033288532868027687
1733141837142169300,9.85816943359375,-0.0031956990715116262,0.0026630824431777,-0.008655018173158169
1733141837152184000,9.86818408203125,-0.0063913981430232525,0.0015978495357558131,-0.010785484686493874
1733141837162221600,9.8782216796875,-0.007456631399691105,0.0037283156998455524,-0.011850717477500439
1733141837172276500,9.8882763671875,-0.0063913981430232525,0.0079892473295331,-0.011850717477500439
1733141837182347500,9.898347412109375,-0.0063913981430232525,0.00905448105186224,-0.012915950268507004
1733141837192433200,9.90843310546875,-0.0063913981430232525,0.010119713842868805,-0.015046416781842709
1733141837202535400,9.918535400390626,-0.0063913981430232525,0.01438064593821764,-0.015046416781842709
1733141837212647000,9.92864697265625,-0.0063913981430232525,0.018641578033566475,-0.019307348877191544
1733141837222769000,9.938768798828125,-0.00852186419069767,0.022902509197592735,-0.021437814459204674
1733141837232893000,9.948892822265625,-0.012782796286046505,0.025032976642251015,-0.019307348877191544
1733141837243020500,9.9590205078125,-0.01704372838139534,0.022902509197592735,-0.015046416781842709
1733141837253147400,9.9691474609375,-0.01704372838139534,0.017576344311237335,-0.009720250964164734
1733141837263190000,9.97918994140625,-0.01491326279938221,0.018641578033566475,-0.009720250964164734
1733141837273231000,9.989231201171876,-0.01384802907705307,0.018641578033566475,-0.010785484686493874
1733141837283272200,9.999272216796875,-0.01171756349503994,0.020772043615579605,-0.013981183059513569
1733141837293313500,10.0093134765625,-0.0106523297727108,0.026098208501935005,-0.012915950268507004
1733141837303354600,10.019354736328125,-0.0106523297727108,0.030359141528606415,-0.011850717477500439
1733141837313396000,10.02939599609375,-0.009587096981704235,0.026098208501935005,-0.007589785382151604
1733141837323437300,10.039437255859376,-0.009587096981704235,0.020772043615579605,-0.0011983871227130294
1733141837333362700,10.04936279296875,-0.0063913981430232525,0.015445878729224205,0.006258244160562754
1733141837343297500,10.059297607421875,-0.0063913981430232525,0.012250179424881935,0.012649642303586006
1733141837353245700,10.06924560546875,-0.007456631399691105,0.013315413147211075,0.025432437658309937
1733141837363210200,10.079210205078125,-0.007456631399691105,0.017576344311237335,0.033954303711652756
1733141837373193700,10.08919384765625,-0.0031956990715116262,0.010119713842868805,0.026497671380639076
1733141837383197700,10.09919775390625,-0.0010652330238372087,0.01438064593821764,0.027562905102968216
1733141837393223200,10.10922314453125,0,0.0026630824431777,0.030758604407310486
1733141837403269400,10.119269287109375,0.0021304660476744175,-0.006924014538526535,0.031823836266994476
1733141837413335800,10.129335693359375,0,0.0047935484908521175,0.030758604407310486
1733141837423420400,10.13942041015625,-0.0021304660476744175,0.016511112451553345,0.021171506494283676
1733141837433520600,10.149520751953125,-0.0063913981430232525,0.021837277337908745,0.006258244160562754
1733141837443633700,10.159633544921874,-0.0106523297727108,0.013315413147211075,0.004127778112888336
1733141837453756000,10.169755859375,-0.009587096981704235,0.00585878174751997,0.013714875094592571
1733141837463879400,10.17987939453125,-0.0053261648863554,0.0079892473295331,0.024367205798625946
1733141837474005200,10.190005126953125,-0.0010652330238372087,0.00905448105186224,0.024367205798625946
1733141837484107500,10.200107421875,-0.0021304660476744175,0.01438064593821764,0.019041040912270546
1733141837494148900,10.21014892578125,-0.0063913981430232525,0.018641578033566475,0.013714875094592571
1733141837504190200,10.220190185546874,-0.00852186419069767,0.018641578033566475,0.011584409512579441
1733141837514208500,10.23020849609375,-0.0106523297727108,0.017576344311237335,0.015845341607928276
1733141837524228400,10.240228271484375,-0.007456631399691105,0.018641578033566475,0.019041040912270546
1733141837534251000,10.2502509765625,-0.0021304660476744175,0.018641578033566475,0.020106272771954536
1733141837544277200,10.26027734375,0.0010652330238372087,0.020772043615579605,0.022236740216612816
1733141837554307000,10.27030712890625,0.0010652330238372087,0.025032976642251015,0.024367205798625946
1733141837564341200,10.28034130859375,0.0021304660476744175,0.025032976642251015,0.029693370684981346
1733141837574379000,10.29037890625,0.0053261648863554,0.025032976642251015,0.03608476743102074
1733141837584419000,10.300419189453125,0.00852186419069767,0.021837277337908745,0.041410934180021286
1733141837594459400,10.31045947265625,0.0106523297727108,0.015445878729224205,0.042476166039705276
1733141837604487700,10.32048779296875,0.00852186419069767,0.013315413147211075,0.03928046673536301
1733141837614516500,10.3305166015625,0.007456631399691105,0.019706811755895615,0.031823836266994476
1733141837624546000,10.340546142578125,0.0063913981430232525,0.025032976642251015,0.020106272771954536
1733141837634577400,10.350577392578124,0.004260932095348835,0.025032976642251015,0.008388710208237171
1733141837644610300,10.3606103515625,0.0053261648863554,0.020772043615579605,0.001997311832383275
1733141837654650400,10.370650390625,0.0031956990715116262,0.018641578033566475,0.0009320789249613881
1733141837664692200,10.380692138671876,0.0021304660476744175,0.022902509197592735,0.0030625448562204838
1733141837674739200,10.3907392578125,0.0010652330238372087,0.029293907806277275,0.004127778112888336
1733141837684788000,10.4007880859375,0.0010652330238372087,0.032489608973264694,0.008388710208237171
1733141837694837800,10.410837646484374,0.0010652330238372087,0.028228675946593285,0.013714875094592571
1733141837704888300,10.420888427734376,0.004260932095348835,0.020772043615579605,0.016910573467612267
1733141837714939100,10.430939208984375,0.0053261648863554,0.010119713842868805,0.016910573467612267
1733141837724988000,10.44098779296875,0.004260932095348835,0.0015978495357558131,0.017975807189941406
1733141837735040500,10.45104052734375,0.0031956990715116262,-0.0026630824431777,0.016910573467612267
1733141837745095700,10.461095703125,-0.0010652330238372087,-0.0015978495357558131,0.014780107885599136
1733141837755137500,10.471137451171876,-0.0053261648863554,0.0005326165119186044,0.015845341607928276
1733141837765154600,10.481154541015625,-0.007456631399691105,0.0015978495357558131,0.017975807189941406
1733141837775172600,10.491172607421875,-0.0063913981430232525,0.0037283156998455524,0.021171506494283676
1733141837785197300,10.501197265625,-0.0021304660476744175,0.0047935484908521175,0.022236740216612816
1733141837795224000,10.51122412109375,0.0010652330238372087,0.0037283156998455524,0.027562905102968216
1733141837805258500,10.521258544921874,0.0021304660476744175,0.0026630824431777,0.03288906812667847
1733141837815299000,10.531299072265625,0.0021304660476744175,0.0015978495357558131,0.037150003015995026
1733141837825343200,10.54134326171875,0.004260932095348835,0.0037283156998455524,0.038215234875679016
1733141837835389700,10.5513896484375,0.0053261648863554,0.0079892473295331,0.037150003015995026
1733141837845438200,10.561438232421875,0.0053261648863554,0.013315413147211075,0.035019535571336746
1733141837855488500,10.571488525390626,0.0031956990715116262,0.018641578033566475,0.03608476743102074
1733141837865540000,10.5815400390625,0.0021304660476744175,0.027163442224264145,0.040345702320337296
1733141837875592400,10.591592529296875,0.004260932095348835,0.027163442224264145,0.03928046673536301
1733141837885645000,10.60164501953125,0.009587096981704235,0.019706811755895615,0.031823836266994476
1733141837895697700,10.61169775390625,0.00852186419069767,0.017576344311237335,0.035019535571336746
1733141837905754600,10.621754638671876,0.0063913981430232525,0.006924014538526535,0.045671865344047546
1733141837915779300,10.631779296875,0.0053261648863554,0.013315413147211075,0.050998032093048096
1733141837925809700,10.6418095703125,0.0053261648863554,0.027163442224264145,0.040345702320337296
1733141837935840800,10.6518408203125,0.004260932095348835,0.032489608973264694,0.014780107885599136
1733141837945878000,10.6618779296875,0,0.031424373388290405,-0.004394086077809334
1733141837955916500,10.67191650390625,-0.0010652330238372087,0.018641578033566475,-0.006524552125483751
1733141837965961200,10.681961181640625,-0.0010652330238372087,0.0079892473295331,0.001997311832383275
1733141837976006700,10.692006591796876,0.0021304660476744175,0.01118494663387537,0.007323476951569319
1733141837986057700,10.7020576171875,0.0021304660476744175,0.020772043615579605,0.006258244160562754
1733141837996108800,10.71210888671875,0.0010652330238372087,0.026098208501935005,0.001997311832383275
1733141838006156800,10.72215673828125,-0.0010652330238372087,0.026098208501935005,-0.0001331541279796511
1733141838016196600,10.732196533203124,-0.004260932095348835,0.022902509197592735,0.001997311832383275
1733141838026236700,10.742236572265625,-0.004260932095348835,0.025032976642251015,0.005193010903894901
1733141838036276700,10.75227685546875,-0.0021304660476744175,0.028228675946593285,0.007323476951569319
1733141838046317000,10.762317138671875,-0.0021304660476744175,0.029293907806277275,0.010519175790250301
1733141838056357600,10.772357666015624,-0.004260932095348835,0.023967742919921875,0.015845341607928276
1733141838066403000,10.782403076171875,-0.004260932095348835,0.019706811755895615,0.021171506494283676
1733141838076453400,10.792453369140626,-0.004260932095348835,0.013315413147211075,0.023301972076296806
1733141838086507800,10.8025078125,-0.004260932095348835,0.01118494663387537,0.021171506494283676
1733141838096531500,10.812531494140625,-0.004260932095348835,0.015445878729224205,0.015845341607928276
1733141838106560500,10.822560546875,-0.004260932095348835,0.027163442224264145,0.010519175790250301
1733141838116595500,10.832595458984375,-0.004260932095348835,0.038881003856658936,0.0030625448562204838
1733141838126631400,10.84263134765625,-0.0053261648863554,0.044207170605659485,-0.0033288532868027687
1733141838136673300,10.85267333984375,-0.007456631399691105,0.038881003856658936,-0.006524552125483751
1733141838146720800,10.862720703125,-0.0063913981430232525,0.027163442224264145,-0.007589785382151604
1733141838156773600,10.872773681640625,-0.004260932095348835,0.022902509197592735,-0.004394086077809334
1733141838166831000,10.8828310546875,-0.0021304660476744175,0.026098208501935005,-0.0001331541279796511
1733141838176892400,10.892892333984374,0,0.028228675946593285,-0.0001331541279796511
1733141838186956500,10.90295654296875,0.0010652330238372087,0.030359141528606415,-0.004394086077809334
1733141838196946700,10.91294677734375,0.0021304660476744175,0.034620072692632675,-0.011850717477500439
1733141838206943700,10.92294384765625,0.0031956990715116262,0.034620072692632675,-0.020372580736875534
1733141838216949000,10.932948974609374,0.004260932095348835,0.028228675946593285,-0.025698747485876083
1733141838226964000,10.9429638671875,0.004260932095348835,0.020772043615579605,-0.024633513763546944
1733141838236989200,10.9529892578125,0.0063913981430232525,0.016511112451553345,-0.021437814459204674
1733141838247019800,10.963019775390626,0.00852186419069767,0.013315413147211075,-0.012915950268507004
1733141838257061000,10.97306103515625,0.01171756349503994,0.012250179424881935,-0.006524552125483751
1733141838267112700,10.98311279296875,0.0159784946590662,0.013315413147211075,-0.00226362026296556
1733141838277173800,10.993173828125,0.01810896210372448,0.012250179424881935,0.0009320789249613881
1733141838287243000,11.003242919921876,0.01810896210372448,0.010119713842868805,0.0009320789249613881
1733141838297319400,11.0133193359375,0.01810896210372448,0.0047935484908521175,0.004127778112888336
1733141838307400700,11.023400634765625,0.01810896210372448,-0.0047935484908521175,0.010519175790250301
1733141838317485600,11.033485595703125,0.01491326279938221,-0.01438064593821764,0.014780107885599136
1733141838327572000,11.043572021484374,0.01384802907705307,-0.019706811755895615,0.015845341607928276
1733141838337651000,11.05365087890625,0.01384802907705307,-0.020772043615579605,0.011584409512579441
1733141838347694000,11.063694091796876,0.012782796286046505,-0.015445878729224205,0.009453942999243736
1733141838357735000,11.07373486328125,0.01384802907705307,-0.0015978495357558131,0.007323476951569319
1733141838367775700,11.083775634765624,0.01704372838139534,0.013315413147211075,0.007323476951569319
1733141838377816300,11.09381640625,0.02343512699007988,0.012250179424881935,0.001997311832383275
1733141838387857200,11.103857177734374,0.02876129187643528,0.0079892473295331,-0.0033288532868027687
1733141838397781200,11.11378125,0.02876129187643528,0.0037283156998455524,0.004127778112888336
1733141838407714600,11.123714599609375,0.02556559257209301,-0.01118494663387537,0.014780107885599136
1733141838417661400,11.133661376953125,0.02450035884976387,-0.0047935484908521175,0.015845341607928276
1733141838427625200,11.143625244140624,0.02876129187643528,0.0005326165119186044,-0.004394086077809334
1733141838437608000,11.15360791015625,0.02769605815410614,0.0037283156998455524,-0.025698747485876083
1733141838447606500,11.1636064453125,0.02236989326775074,0.00585878174751997,-0.033155377954244614
1733141838457627000,11.173626953125,0.01917419396340847,0.0037283156998455524,-0.031024912372231483
1733141838467669200,11.183669189453125,0.0159784946590662,0.0047935484908521175,-0.028894444927573204
1733141838477732400,11.193732421875,0.01491326279938221,0.012250179424881935,-0.028894444927573204
1733141838487814700,11.203814697265624,0.01810896210372448,0.018641578033566475,-0.03528584539890289
1733141838497909000,11.213908935546876,0.01917419396340847,0.018641578033566475,-0.036351077258586884
1733141838508018000,11.224017822265624,0.02023942768573761,0.013315413147211075,-0.029959678649902344
1733141838518137600,11.2341376953125,0.02023942768573761,0.0047935484908521175,-0.017176883295178413
1733141838528264700,11.2442646484375,0.02023942768573761,-0.0005326165119186044,-0.009720250964164734
1733141838538395600,11.254395751953124,0.02023942768573761,-0.0026630824431777,-0.0033288532868027687
1733141838548406300,11.26440625,0.01917419396340847,-0.0005326165119186044,0.0009320789249613881
1733141838558423000,11.274423095703124,0.01704372838139534,0.00905448105186224,0.005193010903894901
1733141838568446500,11.284446533203125,0.01491326279938221,0.015445878729224205,0.009453942999243736
1733141838578477000,11.29447705078125,0.01491326279938221,0.020772043615579605,0.010519175790250301
1733141838588515300,11.304515380859375,0.0159784946590662,0.021837277337908745,0.007323476951569319
1733141838598556000,11.314555908203126,0.01491326279938221,0.021837277337908745,0.005193010903894901
1733141838608603600,11.324603759765624,0.012782796286046505,0.022902509197592735,0.006258244160562754
1733141838618658000,11.334657958984375,0.01384802907705307,0.025032976642251015,0.005193010903894901
1733141838628718600,11.344718505859374,0.012782796286046505,0.022902509197592735,0.0030625448562204838
1733141838638779000,11.35477880859375,0.01171756349503994,0.013315413147211075,0.005193010903894901
1733141838648843500,11.364843505859374,0.01171756349503994,0.0005326165119186044,0.007323476951569319
1733141838658911000,11.374910888671875,0.00852186419069767,0.0026630824431777,0.013714875094592571
1733141838668906800,11.38490673828125,0.00852186419069767,0.01438064593821764,0.015845341607928276
1733141838678909200,11.3949091796875,0.00852186419069767,0.027163442224264145,0.010519175790250301
1733141838688919600,11.40491943359375,0.007456631399691105,0.033554840832948685,0.008388710208237171
1733141838698938600,11.414938720703125,0.0053261648863554,0.030359141528606415,0.007323476951569319
1733141838708967200,11.42496728515625,0.0031956990715116262,0.027163442224264145,0.005193010903894901
1733141838719005400,11.43500537109375,0.0031956990715116262,0.023967742919921875,0.001997311832383275
1733141838729053000,11.445052978515625,0.0010652330238372087,0.013315413147211075,0.004127778112888336
1733141838739104800,11.455104736328124,-0.0021304660476744175,0.0037283156998455524,0.006258244160562754
1733141838749164800,11.465164794921876,-0.0010652330238372087,-0.0005326165119186044,0.005193010903894901
1733141838759232000,11.47523193359375,-0.0021304660476744175,-0.0005326165119186044,0.004127778112888336
1733141838769300200,11.48530029296875,-0.0053261648863554,-0.0005326165119186044,0.004127778112888336
1733141838779373000,11.495373046875,-0.0063913981430232525,0.0026630824431777,0.0030625448562204838
1733141838789449000,11.505448974609376,-0.0053261648863554,0.01118494663387537,-0.0001331541279796511
1733141838799526700,11.515526611328125,-0.0031956990715116262,0.019706811755895615,-0.004394086077809334
1733141838809604900,11.52560498046875,-0.0010652330238372087,0.020772043615579605,-0.005459319334477186
1733141838819532300,11.5355322265625,0,0.013315413147211075,-0.005459319334477186
1733141838829469200,11.54546923828125,0,0.0047935484908521175,-0.004394086077809334
1733141838839419400,11.55541943359375,0.0010652330238372087,0.0047935484908521175,-0.004394086077809334
1733141838849385700,11.5653857421875,-0.0010652330238372087,0.012250179424881935,-0.004394086077809334
1733141838859370800,11.575370849609374,-0.0031956990715116262,0.022902509197592735,-0.0001331541279796511
1733141838869371100,11.58537109375,0.0021304660476744175,0.021837277337908745,-0.005459319334477186
1733141838879392800,11.595392822265625,0.004260932095348835,0.016511112451553345,-0.012915950268507004
1733141838889435400,11.605435302734374,0.0021304660476744175,0.01438064593821764,-0.005459319334477186
1733141838899498500,11.61549853515625,0,0.0026630824431777,0.005193010903894901
1733141838909580000,11.625580078125,0,0.00905448105186224,0.0030625448562204838
1733141838919678000,11.635677978515625,0.0010652330238372087,0.020772043615579605,-0.016111649572849274
1733141838929789200,11.6457890625,-0.0010652330238372087,0.020772043615579605,-0.03954677656292915
1733141838939910700,11.65591064453125,-0.007456631399691105,0.012250179424881935,-0.047003407031297684
1733141838950038500,11.66603857421875,-0.00852186419069767,-0.0026630824431777,-0.033155377954244614
1733141838960169000,11.6761689453125,-0.007456631399691105,-0.013315413147211075,-0.012915950268507004
1733141838970278700,11.686278564453126,-0.0053261648863554,-0.017576344311237335,-0.00226362026296556
1733141838980320000,11.696320068359375,-0.004260932095348835,-0.01438064593821764,-0.005459319334477186
1733141838990360800,11.70636083984375,-0.0021304660476744175,-0.01118494663387537,-0.015046416781842709
1733141839000401700,11.716401611328125,-0.0021304660476744175,-0.0079892473295331,-0.017176883295178413
1733141839010442500,11.7264423828125,-0.0010652330238372087,-0.0026630824431777,-0.015046416781842709
1733141839020483600,11.736483642578126,0.0021304660476744175,0.0037283156998455524,-0.013981183059513569
1733141839030524700,11.746524658203125,0.004260932095348835,0.0047935484908521175,-0.013981183059513569
1733141839040566000,11.75656591796875,0.0053261648863554,0.0005326165119186044,-0.010785484686493874
1733141839050607400,11.766607421875,0.0053261648863554,-0.0079892473295331,-0.0001331541279796511
1733141839060649000,11.77664892578125,0.0053261648863554,-0.01438064593821764,0.011584409512579441
1733141839070690800,11.78669091796875,0.004260932095348835,-0.013315413147211075,0.019041040912270546
1733141839080732700,11.796732666015625,0.0031956990715116262,-0.0079892473295331,0.019041040912270546
1733141839090774500,11.8067744140625,0.0021304660476744175,-0.0079892473295331,0.014780107885599136
1733141839100816600,11.816816650390624,0,-0.010119713842868805,0.012649642303586006
1733141839110858800,11.826858642578125,0,-0.0037283156998455524,0.010519175790250301
1733141839120901000,11.836901123046875,0.0010652330238372087,0.006924014538526535,0.0030625448562204838
1733141839130943200,11.846943115234374,0.0010652330238372087,0.01118494663387537,-0.0001331541279796511
1733141839140985300,11.8569853515625,0.0021304660476744175,0.006924014538526535,-0.00226362026296556
1733141839151027700,11.86702783203125,0.0021304660476744175,0.0026630824431777,0.001997311832383275
1733141839161069600,11.877069580078125,0,0.0037283156998455524,0.008388710208237171
1733141839171111200,11.887111083984376,0.0031956990715116262,0.0079892473295331,0.008388710208237171
1733141839181153000,11.897153076171875,0.0010652330238372087,0.010119713842868805,0.006258244160562754
1733141839191194600,11.907194580078125,0.0010652330238372087,0.00585878174751997,0.004127778112888336
1733141839201236500,11.917236572265624,-0.0010652330238372087,0.0005326165119186044,0.001997311832383275
1733141839211278000,11.927278076171875,-0.0031956990715116262,-0.0005326165119186044,0.001997311832383275
1733141839221319700,11.937319580078125,-0.0031956990715116262,-0.0005326165119186044,0.0030625448562204838
1733141839231361300,11.947361328125,-0.004260932095348835,-0.0037283156998455524,0.004127778112888336
1733141839241403100,11.957403076171875,-0.0031956990715116262,-0.0079892473295331,0.0030625448562204838
1733141839251325200,11.9673251953125,-0.0010652330238372087,-0.010119713842868805,0.001997311832383275
1733141839261257000,11.977257080078125,0.004260932095348835,-0.006924014538526535,0.0009320789249613881
1733141839271202300,11.987202392578125,0.007456631399691105,-0.0026630824431777,0.004127778112888336
1733141839281164500,11.99716455078125,0.00852186419069767,-0.0005326165119186044,0.006258244160562754
1733141839291146200,12.007146240234375,0.01171756349503994,0.0015978495357558131,0.008388710208237171
1733141839301149000,12.01714892578125,0.01171756349503994,0.0047935484908521175,0.005193010903894901
1733141839311173000,12.027173095703125,0.012782796286046505,0.0026630824431777,0.0030625448562204838
1733141839321219000,12.037218994140625,0.012782796286046505,0.0015978495357558131,0.001997311832383275
1733141839331285500,12.047285400390624,0.01384802907705307,0.0026630824431777,-0.0001331541279796511
1733141839341370600,12.05737060546875,0.01171756349503994,0.0037283156998455524,0.001997311832383275
1733141839351472000,12.06747216796875,0.009587096981704235,0.01118494663387537,0.010519175790250301
1733141839361586700,12.077586669921875,0.0106523297727108,0.019706811755895615,0.015845341607928276
1733141839371711000,12.0877109375,0.012782796286046505,0.022902509197592735,0.005193010903894901
1733141839381841400,12.09784130859375,0.012782796286046505,0.025032976642251015,0.004127778112888336
1733141839391974000,12.107973876953125,0.01171756349503994,0.010119713842868805,0.016910573467612267
1733141839402023000,12.11802294921875,0.009587096981704235,-0.00585878174751997,0.026497671380639076
1733141839412073700,12.12807373046875,0.00852186419069767,-0.0026630824431777,0.022236740216612816
1733141839422125600,12.13812548828125,0.0063913981430232525,0.00585878174751997,0.001997311832383275
1733141839432178000,12.148177978515625,0.0031956990715116262,0.006924014538526535,-0.020372580736875534
1733141839442230800,12.158230712890624,0,-0.0015978495357558131,-0.020372580736875534
1733141839452159000,12.168158935546876,-0.0010652330238372087,-0.017576344311237335,-0.006524552125483751
1733141839462096400,12.178096435546875,0,-0.021837277337908745,0.008388710208237171
1733141839472046800,12.188046875,0.0010652330238372087,-0.016511112451553345,0.009453942999243736
1733141839482013700,12.198013671875,0.0031956990715116262,-0.0026630824431777,-0.0011983871227130294
1733141839491999000,12.2079990234375,0.0031956990715116262,0.00905448105186224,-0.010785484686493874
1733141839501999600,12.21799951171875,0.004260932095348835,0.013315413147211075,-0.013981183059513569
1733141839512021000,12.22802099609375,0.0053261648863554,0.01118494663387537,-0.009720250964164734
1733141839522063400,12.2380634765625,0.0021304660476744175,0.0015978495357558131,-0.0001331541279796511
1733141839532121900,12.248121826171875,0.0031956990715116262,-0.00585878174751997,0.008388710208237171
1733141839542199300,12.25819921875,0.0053261648863554,-0.0015978495357558131,0.011584409512579441
1733141839552288500,12.26828857421875,0.0063913981430232525,0.0047935484908521175,0.010519175790250301
1733141839562392300,12.278392333984375,0.007456631399691105,0.0079892473295331,0.012649642303586006
