time,seconds_elapsed,z,y,x
1733141827421792500,0.13779248046875,-0.8536511063575745,-0.3571193814277649,0.08481918275356293
1733141827431832300,0.147832275390625,-0.8429988026618958,-0.3155752718448639,0.2264951765537262
1733141827441894000,0.157893798828125,-0.8291507363319397,-0.2633788585662842,0.3244965970516205
1733141827451975200,0.16797509765625,-0.8216941356658936,-0.22503048181533813,0.37882348895072937
1733141827462074000,0.17807421875,-0.8227593302726746,-0.18987779319286346,0.4075847864151001
1733141827472186600,0.1881865234375,-0.8099765777587891,-0.2175738513469696,0.4193023443222046
1733141827482310100,0.19831005859375,-0.7822805047035217,-0.3592498302459717,0.3979976773262024
1733141827492437000,0.20843701171875,-0.7439321279525757,-0.47962117195129395,0.3415403366088867
1733141827502543400,0.21854345703125,-0.6800181269645691,-0.578687846660614,0.2616478502750397
1733141827512584200,0.228584228515625,-0.6107779741287231,-0.6830806732177734,0.15938548743724823
1733141827522629600,0.238629638671875,-0.5234288573265076,-0.7214290499687195,0.07523208111524582
1733141827532667600,0.248667724609375,-0.3913399875164032,-0.5946663618087769,0.02516612969338894
1733141827542710500,0.25871044921875,-0.2102503627538681,-0.3890763521194458,0.015579032711684704
1733141827552751000,0.268751220703125,-0.008921326138079166,-0.23142187297344208,0.04327509179711342
1733141827562796300,0.27879638671875,0.12529803812503815,-0.21650861203670502,0.10292813926935196
1733141827572834600,0.28883447265625,0.16364642977714539,-0.3326190114021301,0.18708154559135437
1733141827582877700,0.298877685546875,0.11038476973772049,-0.42316383123397827,0.3010614812374115
1733141827592917800,0.308917724609375,-0.012117025442421436,-0.4604469835758209,0.44593316316604614
1733141827602962700,0.318962646484375,-0.15485824644565582,-0.5094476938247681,0.6003919839859009
1733141827613012000,0.329011962890625,-0.2528596818447113,-0.5392742156982422,0.7452636361122131
1733141827623065600,0.339065673828125,-0.27842527627944946,-0.5701659917831421,0.8528521656990051
1733141827633122300,0.349122314453125,-0.23368549346923828,-0.6660369634628296,0.8997224569320679
1733141827643181800,0.359181884765625,-0.16338011622428894,-0.8684312105178833,0.8826786875724792
1733141827653243400,0.369243408203125,-0.1356840580701828,-1.1539136171340942,0.784677267074585
1733141827663305700,0.3793056640625,-0.1793586164712906,-1.5011796951293945,0.6227618455886841
1733141827673368000,0.3893681640625,-0.25818586349487305,-1.8112956285476685,0.41291093826293945
1733141827683413200,0.399413330078125,-0.5053198933601379,-0.4860125780105591,0.6195661425590515
1733141827693454000,0.4094541015625,-1.0773500204086304,1.1736204624176025,1.158574104309082
1733141827703495200,0.4194951171875,-1.3724195957183838,-1.094260573387146,0.7750901579856873
1733141827713536300,0.429536376953125,-1.402246117591858,-1.5192886590957642,0.500260055065155
1733141827723577300,0.439577392578125,-1.4278117418289185,-1.4404613971710205,0.3447360396385193
1733141827733618400,0.449618408203125,-1.3053098917007446,-1.3041114807128906,0.2254299372434616
1733141827743659800,0.45965966796875,-1.1156984567642212,-1.5139623880386353,0.06351451575756073
1733141827753701400,0.469701416015625,-0.9303479194641113,-1.5097014904022217,-0.10798799991607666
1733141827763743000,0.479742919921875,-0.7481930255889893,-1.168826937675476,-0.20492419600486755
1733141827773784800,0.489784912109375,-0.5724295973777771,-1.0186290740966797,-0.26883819699287415
1733141827783826700,0.49982666015625,-0.48401525616645813,-0.9408670663833618,-0.35299158096313477
1733141827793868500,0.50986865234375,-0.4893414080142975,-0.8790835738182068,-0.4680367708206177
1733141827803910700,0.51991064453125,-0.46164536476135254,-0.8524527549743652,-0.5564510822296143
1733141827813952800,0.529952880859375,-0.35405683517456055,-0.7853430509567261,-0.5692338943481445
1733141827823995100,0.5399951171875,-0.2304897904396057,-0.9792154431343079,-0.6310173869132996
1733141827834037200,0.550037353515625,-0.1367492824792862,-1.2433933019638062,-0.757780134677887
1733141827844079600,0.56007958984375,-0.0003994623839389533,-1.6567037105560303,-0.8387378454208374
1733141827854121700,0.570121826171875,0.13701559603214264,-1.8262088298797607,-0.8919994831085205
1733141827864163600,0.58016357421875,0.2275604009628296,-2.034994602203369,-0.9196955561637878
1733141827874205400,0.590205322265625,0.3340837061405182,-2.278932809829712,-0.84193354845047
1733141827884246800,0.600246826171875,0.34686651825904846,-2.1628224849700928,-0.6161041259765625
1733141827894288100,0.6102880859375,0.15938548743724823,-1.4596354961395264,-0.27096864581108093
1733141827904329500,0.62032958984375,-0.2091851383447647,-0.3155752718448639,0.17962491512298584
1733141827914371000,0.63037109375,-0.5884081125259399,0.7134398221969604,0.5790873169898987
1733141827924412700,0.64041259765625,-0.7993242144584656,1.0234225988388062,0.8326127529144287
1733141827934454300,0.650454345703125,-0.7854762077331543,0.5493939518928528,0.9199618697166443
1733141827944469800,0.6604697265625,-0.6938661336898804,0.23301972448825836,1.0350069999694824
1733141827954469400,0.670469482421875,-0.49253711104393005,-0.2388785034418106,1.2789454460144043
1733141827964468700,0.68046875,-0.2944037914276123,-0.15685556828975677,1.4963860511779785
1733141827974469600,0.6904697265625,-0.12290126085281372,0.09666989743709564,1.4303416013717651
1733141827984473300,0.700473388671875,0.05818835273385048,-0.1014634445309639,1.2043790817260742
1733141827994481400,0.7104814453125,0.19666863977909088,-0.2175738513469696,0.9934629201889038
1733141828004495000,0.7204951171875,0.12210233509540558,-0.07483261823654175,0.9625712037086487
1733141828014515000,0.730514892578125,-0.04087831825017929,0.06471290439367294,0.9572450518608093
1733141828024546800,0.740546875,-0.16018441319465637,-0.00133154122158885,0.7324808835983276
1733141828034588200,0.750588134765625,-0.2720338702201843,-0.11424624174833298,0.3873453438282013
1733141828044637400,0.760637451171875,-0.24433782696723938,-0.23248711228370667,0.02410089783370495
1733141828054692600,0.770692626953125,-0.11331415921449661,-0.32835808396339417,-0.25818586349487305
1733141828064753000,0.7807529296875,-0.04620448127388954,-0.4199681282043457,-0.42755791544914246
1733141828074817500,0.790817626953125,-0.10905323177576065,-0.7203638553619385,-0.4882761836051941
1733141828084885000,0.800885009765625,-0.22729410231113434,-1.1848053932189941,-0.4264926612377167
1733141828094954800,0.810954833984375,-0.2975994646549225,-1.3531122207641602,-0.19214141368865967
1733141828105029600,0.821029541015625,-0.38388335704803467,-1.099586844444275,0.18921200931072235
1733141828115085600,0.83108544921875,-0.47336292266845703,-0.7789516448974609,0.6174356937408447
1733141828125141500,0.8411416015625,-0.4456668794155121,-0.7885387539863586,0.9412665367126465
1733141828135198200,0.8511982421875,-0.33168694376945496,-0.9547150731086731,1.1532479524612427
1733141828145210400,0.86121044921875,-0.734345018863678,-0.9035838842391968,1.4761466979980469
1733141828155229000,0.87122900390625,-1.5652267932891846,-0.816234827041626,1.8159559965133667
1733141828165254000,0.88125390625,-2.1926491260528564,-0.9962592124938965,1.8830657005310059
1733141828175285200,0.89128515625,-2.7167437076568604,-0.6947982311248779,1.9565668106079102
1733141828185322200,0.901322265625,-2.8925070762634277,-0.37309786677360535,2.0897209644317627
1733141828195362000,0.911362060546875,-2.53671932220459,-0.14726845920085907,2.2921152114868164
1733141828205404200,0.921404052734375,-2.0669515132904053,-0.4210333526134491,2.531792640686035
1733141828215448600,0.931448486328125,-1.5982489585876465,-0.7587122321128845,2.668142318725586
1733141828225495300,0.941495361328125,-1.0059794187545776,-0.7501903772354126,2.458291530609131
1733141828235543600,0.95154345703125,-0.48401525616645813,-0.6212971806526184,1.9075660705566406
1733141828245593000,0.961593017578125,-0.2102503627538681,-0.7192986011505127,1.0797468423843384
1733141828255644000,0.971643798828125,-0.05472634732723236,-1.00052011013031,0.10079767554998398
1733141828265700000,0.9817001953125,-0.05685681104660034,-1.023955225944519,-0.9825443029403687
1733141828275752700,0.991752685546875,-0.07816147059202194,-0.8961272835731506,-1.799578070640564
1733141828285809700,1.0018095703125,0.0027962366584688425,-0.7981258630752563,-2.1788010597229004
1733141828295836200,1.011836181640625,0.15512455999851227,-0.7491251230239868,-2.251236915588379
1733141828305867800,1.02186767578125,0.2595174014568329,-0.8332785367965698,-2.129800319671631
1733141828315900400,1.031900390625,0.22436471283435822,-1.092130184173584,-1.9188841581344604
1733141828325939000,1.04193896484375,0.13275466859340668,-1.3616341352462769,-1.6770762205123901
1733141828335978500,1.051978515625,-0.03129122033715248,-1.4489831924438477,-1.3969199657440186
1733141828346023700,1.062023681640625,-0.28162097930908203,-1.3903954029083252,-1.1476554870605469
1733141828356070000,1.07206982421875,-0.5553858876228333,-1.209305763244629,-0.9825443029403687
1733141828366121200,1.082121337890625,-0.8323464393615723,-0.8535179495811462,-0.9378045201301575
1733141828376169700,1.092169677734375,-1.0294145345687866,-0.7043853402137756,-0.9271522164344788
1733141828386222800,1.102222900390625,-1.088002324104309,-0.4966649115085602,-0.7769543528556824
1733141828396253000,1.1122529296875,-1.116763710975647,-0.386945903301239,-0.48188477754592896
1733141828406288100,1.1222880859375,-1.0315450429916382,-0.3368799388408661,-0.2326202541589737
1733141828416328400,1.132328369140625,-0.917565107345581,-0.5371437668800354,-0.2826862037181854
1733141828426374400,1.14237451171875,-0.856846809387207,-0.8588441014289856,-0.6235607862472534
1733141828436424700,1.1524248046875,-0.9218260049819946,-0.9078448414802551,-0.8781514763832092
1733141828446479600,1.162479736328125,-1.0645672082901,-0.7054505944252014,-0.9441959261894226
1733141828456503600,1.172503662109375,-1.1849385499954224,-0.3336842358112335,-1.0081099271774292
1733141828466532900,1.182532958984375,-1.2392654418945312,-0.1451379954814911,-1.0677629709243774
1733141828476568000,1.192568115234375,-1.277613878250122,-0.13022473454475403,-1.240330696105957
1733141828486609200,1.202609130859375,-1.3362016677856445,-0.2942706346511841,-1.5854661464691162
1733141828496655600,1.212655517578125,-1.4757472276687622,-0.6330147385597229,-1.9668196439743042
1733141828506707500,1.22270751953125,-1.6461844444274902,-0.8971925377845764,-2.2384541034698486
1733141828516763600,1.232763671875,-1.6089013814926147,-1.0292813777923584,-2.3172812461853027
1733141828526823700,1.24282373046875,-1.3053098917007446,-1.2923939228057861,-2.2203450202941895
1733141828536886800,1.25288671875,-0.8919994831085205,-1.3744169473648071,-2.0413858890533447
1733141828546951700,1.26295166015625,-0.6352783441543579,-1.5810720920562744,-1.8443177938461304
1733141828557017600,1.273017578125,-0.8259550333023071,-1.8027737140655518,-1.715424656867981
1733141828567082200,1.283082275390625,-1.1433944702148438,-2.3055636882781982,-1.5194216966629028
1733141828577123800,1.293123779296875,-1.1444597244262695,-2.7870490550994873,-1.1210246086120605
1733141828587165400,1.30316552734375,-0.9164998531341553,-3.0469658374786377,-0.6714962720870972
1733141828597207300,1.313207275390625,-0.7045184969902039,-2.7018303871154785,-0.17616291344165802
1733141828607249000,1.323248779296875,-0.48295003175735474,-2.124474048614502,0.2797568142414093
1733141828617290500,1.33329052734375,-0.3497959077358246,-1.7367292642593384,0.546065092086792
1733141828627211800,1.343211669921875,-0.454188734292984,-1.5491151809692383,0.5322170257568359
1733141828637142800,1.353142822265625,-0.6544525623321533,-1.346720814704895,0.4842815697193146
1733141828647087400,1.36308740234375,-0.771628201007843,-1.1656312942504883,0.5652392506599426
1733141828657048800,1.373048828125,-0.7545844316482544,-1.1187609434127808,0.7644378542900085
1733141828667030000,1.383030029296875,-0.6683005690574646,-1.2125015258789062,1.021159052848816
1733141828677032200,1.3930322265625,-0.5852124094963074,-1.3861345052719116,1.3045109510421753
1733141828687056400,1.403056396484375,-0.5489944815635681,-1.597050666809082,1.6082355976104736
1733141828697102000,1.41310205078125,-0.5937342643737793,-1.890122890472412,1.9192836284637451
1733141828707168800,1.423168701171875,-0.7141056060791016,-2.254432439804077,2.26548433303833
1733141828717254100,1.433254150390625,-0.8536511063575745,-2.5985028743743896,2.6905124187469482
1733141828727356000,1.44335595703125,-0.9931966662406921,-2.7859838008880615,3.171997547149658
1733141828737470700,1.453470703125,-1.1061112880706787,-2.868006706237793,3.588503837585449
1733141828747595800,1.463595703125,-1.156177282333374,-2.927659749984741,3.8633339405059814
1733141828757726700,1.473726806640625,-1.1742862462997437,-2.881854772567749,3.9602701663970947
1733141828767860200,1.483860107421875,-1.1306116580963135,-2.8381803035736084,3.8643991947174072
1733141828777958000,1.4939580078125,-1.034740686416626,-2.9255292415618896,3.64496111869812
1733141828787999500,1.50399951171875,-0.8877385854721069,-3.0384440422058105,3.4798500537872314
1733141828798041000,1.514041015625,-0.7460625767707825,-3.1609458923339844,3.4372406005859375
1733141828808082700,1.524082763671875,-0.7226274609565735,-3.395297050476074,3.47771954536438
1733141828818124500,1.53412451171875,-0.856846809387207,-3.634974479675293,3.5863733291625977
1733141828828166100,1.544166259765625,-1.1007851362228394,-3.817129373550415,3.7355058193206787
1733141828838207700,1.554207763671875,-1.3734848499298096,-3.891695737838745,3.869725227355957
1733141828848249600,1.56424951171875,-1.6046403646469116,-3.7819766998291016,3.9613354206085205
1733141828858291200,1.574291259765625,-1.754838228225708,-3.512472629547119,3.9517481327056885
1733141828868332800,1.584332763671875,-1.7772080898284912,-3.1779894828796387,3.831376791000366
1733141828878374400,1.59437451171875,-1.6579020023345947,-2.7870490550994873,3.618330240249634
1733141828888416300,1.604416259765625,-1.4118331670761108,-2.3779995441436768,3.350956678390503
1733141828898457900,1.614457763671875,-1.1764167547225952,-1.9337973594665527,2.995168924331665
1733141828908499500,1.62449951171875,-0.9995880126953125,-1.5267452001571655,2.5104880332946777
1733141828918541000,1.634541015625,-0.7641715407371521,-1.3808083534240723,1.9949151277542114
1733141828928583000,1.6445830078125,-0.5234288573265076,-1.4734835624694824,1.6093007326126099
1733141828938624500,1.65462451171875,-0.43927547335624695,-1.5640283823013306,1.4953209161758423
1733141828948666400,1.664666259765625,-0.5085155963897705,-1.4180914163589478,1.7051717042922974
1733141828958708000,1.6747080078125,-0.6107779741287231,-0.9302147626876831,2.1195473670959473
1733141828968749600,1.68474951171875,-0.5766905546188354,-0.17389929294586182,2.559488534927368
1733141828978791400,1.69479150390625,-0.3796224296092987,0.464175283908844,2.8620147705078125
1733141828988833300,1.704833251953125,-0.12929265201091766,0.7272878289222717,2.9269940853118896
1733141828998875100,1.714875244140625,0.06990591436624527,0.5440677404403687,2.8151445388793945
1733141829008916700,1.724916748046875,0.16045072674751282,-0.06418029218912125,2.607424020767212
1733141829018958600,1.73495849609375,0.10292813926935196,-0.8790835738182068,2.3347244262695312
1733141829029000200,1.745000244140625,-0.12929265201091766,-1.7356640100479126,1.8958485126495361
1733141829039041800,1.755041748046875,-0.2954690158367157,-2.2150189876556396,1.182009220123291
1733141829049083400,1.76508349609375,-0.22835932672023773,-2.0989084243774414,0.37882348895072937
1733141829059125200,1.775125244140625,-0.01957365684211254,-1.5959854125976562,-0.43927547335624695
1733141829069166800,1.785166748046875,0.18601632118225098,-1.0580426454544067,-1.2147650718688965
1733141829079208400,1.79520849609375,0.312779039144516,-0.6852111220359802,-1.7772080898284912
1733141829089250000,1.80525,0.3532578945159912,-0.5051867365837097,-2.101038932800293
1733141829099292000,1.8152919921875,0.3415403366088867,-0.42635950446128845,-2.2565629482269287
1733141829109333500,1.82533349609375,0.33940985798835754,-0.4828168749809265,-2.324738025665283
1733141829119375000,1.835375,0.3884105980396271,-0.6085143685340881,-2.344977378845215
1733141829129416700,1.845416748046875,0.457650750875473,-0.7129071950912476,-2.2991724014282227
1733141829139339800,1.85533984375,0.5268908739089966,-0.8833444714546204,-2.2203450202941895
1733141829149272000,1.86527197265625,0.5652392506599426,-1.0825430154800415,-2.120213270187378
1733141829159218000,1.875218017578125,0.5396736860275269,-1.1592398881912231,-1.9572324752807617
1733141829169180400,1.885180419921875,0.4469984173774719,-1.0740212202072144,-1.776142954826355
1733141829179162600,1.89516259765625,0.32875755429267883,-0.8513875007629395,-1.6728153228759766
1733141829189165300,1.905165283203125,0.2382127344608307,-0.6010577082633972,-1.6387279033660889
1733141829199189800,1.915189697265625,0.18601632118225098,-0.42742475867271423,-1.6025099754333496
1733141829209235700,1.925235595703125,0.10505861043930054,-0.33155378699302673,-1.530074119567871
1733141829219302100,1.93530224609375,0.01770949922502041,-0.29000967741012573,-1.3894633054733276
1733141829229387000,1.945386962890625,-0.06005251035094261,-0.25592222809791565,-1.1668295860290527
1733141829239483100,1.955483154296875,-0.12822742760181427,-0.17176882922649384,-0.9548482298851013
1733141829249592800,1.9655927734375,-0.21664176881313324,-0.030092833563685417,-0.8493902087211609
1733141829259712800,1.975712646484375,-0.31251272559165955,0.12330072373151779,-0.8089113235473633
1733141829269839400,1.98583935546875,-0.38707906007766724,0.2830856740474701,-0.6661701202392578
1733141829279969300,1.99596923828125,-0.39879661798477173,0.47056668996810913,-0.30186042189598083
1733141829290084000,2.006083984375,-0.35405683517456055,0.6740261912345886,0.28614822030067444
1733141829300126000,2.0161259765625,-0.32316505908966064,0.8796161413192749,1.0030500888824463
1733141829310167300,2.026167236328125,-0.3295564651489258,1.0564448833465576,1.7168893814086914
1733141829320209000,2.036208984375,-0.34233927726745605,1.1810771226882935,2.3389854431152344
1733141829330250500,2.04625048828125,-0.35618728399276733,1.3248835802078247,2.8758628368377686
1733141829340292000,2.0562919921875,-0.36470916867256165,1.400515079498291,3.317934513092041
1733141829350333700,2.066333740234375,-0.34233927726745605,1.4111675024032593,3.7323102951049805
1733141829360375300,2.076375244140625,-0.30079516768455505,1.629540205001831,4.143490314483643
1733141829370417000,2.0864169921875,-0.2720338702201843,2.079068660736084,4.520582675933838
1733141829380458200,2.096458251953125,-0.22303315997123718,2.643641948699951,4.908327579498291
1733141829390499800,2.106499755859375,-0.18148908019065857,3.252023220062256,5.301398277282715
1733141829400541700,2.116541748046875,-0.15485824644565582,3.537505626678467,5.684882164001465
1733141829410583300,2.126583251953125,-0.19214141368865967,3.602484941482544,6.019498825073242
1733141829420625200,2.136625244140625,-0.20172850787639618,4.369452476501465,6.143065929412842
1733141829430666800,2.146666748046875,-0.3071865737438202,4.1095356941223145,5.001002788543701
1733141829440708600,2.15670849609375,-0.6800181269645691,1.1171631813049316,-0.7396711707115173
1733141829450750200,2.166750244140625,-0.45844966173171997,0.4652405083179474,-2.0946476459503174
1733141829460792000,2.1767919921875,-0.22729410231113434,-0.7714950442314148,-1.0773500204086304
1733141829470834000,2.186833984375,-0.05792204663157463,-1.1517832279205322,-0.33488261699676514
1733141829480875800,2.196875732421875,0.21797330677509308,-0.8982577323913574,0.3564535975456238
1733141829490917600,2.206917724609375,0.3340837061405182,-1.1049129962921143,0.6557840704917908
1733141829500959500,2.21695947265625,0.3351489305496216,-1.4340699911117554,0.8251561522483826
1733141829511001000,2.2270009765625,0.28721344470977783,-1.754838228225708,0.8816134929656982
1733141829521043000,2.23704296875,0.2254299372434616,-2.0562992095947266,0.7324808835983276
1733141829531084800,2.247084716796875,0.2062557488679886,-2.3087594509124756,0.4416722357273102
1733141829541126700,2.257126708984375,0.23182134330272675,-2.461087703704834,0.07842778414487839
1733141829551168500,2.26716845703125,0.2882786989212036,-2.3929128646850586,-0.3370130956172943
1733141829561210400,2.27721044921875,0.34793174266815186,-2.1351263523101807,-0.7631062865257263
1733141829571251700,2.287251708984375,0.3958672285079956,-1.7612296342849731,-1.1316769123077393
1733141829581293000,2.29729296875,0.4182371199131012,-1.4127652645111084,-1.4437901973724365
1733141829591334700,2.307334716796875,0.3979976773262024,-1.1592398881912231,-1.7271422147750854
1733141829601376000,2.3173759765625,0.3671059310436249,-0.9749545454978943,-2.0200812816619873
1733141829611417600,2.32741748046875,0.3660407066345215,-0.8641703128814697,-2.3268682956695557
1733141829621459000,2.337458984375,0.3617797791957855,-0.8524527549743652,-2.6123509407043457
1733141829631500500,2.34750048828125,0.3521926701068878,-0.9611064791679382,-2.834984540939331
1733141829641542000,2.3575419921875,0.38095396757125854,-1.1613702774047852,-2.971334457397461
1733141829651583500,2.36758349609375,0.41397619247436523,-1.2891982793807983,-3.022465467453003
1733141829661625000,2.377625,0.3948020040988922,-1.2306104898452759,-3.0107479095458984
1733141829671667000,2.3876669921875,0.3628450036048889,-1.0282161235809326,-2.8573544025421143
1733141829681708800,2.397708740234375,0.2595174014568329,-0.6905373334884644,-2.5239365100860596
1733141829691750400,2.40775048828125,0.07416684925556183,-0.3549889028072357,-2.0275378227233887
1733141829701792500,2.41779248046875,-0.10053136944770813,-0.025831900537014008,-1.3202232122421265
1733141829711834400,2.42783447265625,-0.18575000762939453,0.26710718870162964,-0.47016721963882446
1733141829721876200,2.437876220703125,-0.19214141368865967,0.5035889148712158,0.38308441638946533
1733141829731918000,2.44791796875,-0.19320663809776306,0.7880061268806458,1.1660306453704834
1733141829741960000,2.4579599609375,-0.1793586164712906,1.199186086654663,1.8724133968353271
1733141829751881700,2.4678818359375,-0.14207544922828674,1.6891932487487793,2.528596878051758
1733141829761813000,2.47781298828125,-0.15059731900691986,2.1941137313842773,3.1602799892425537
1733141829771758000,2.487758056640625,-0.21344606578350067,2.5722713470458984,3.7600061893463135
1733141829781719800,2.4977197265625,-0.2975994646549225,2.818340301513672,4.2745137214660645
1733141829791701200,2.507701171875,-0.3178389072418213,3.0102152824401855,4.635627746582031
1733141829801703700,2.51770361328125,-0.24753352999687195,3.2253923416137695,4.824173927307129
1733141829811728000,2.527727783203125,-0.09413997083902359,4.005143165588379,4.845478534698486
1733141829821773800,2.53777392578125,0.000665770610794425,5.267444133758545,3.934704542160034
1733141829831840500,2.547840576171875,-0.2752295732498169,1.9533710479736328,-1.9593629837036133
1733141829841926000,2.55792578125,-0.0025299284607172012,0.9840090274810791,-2.160691976547241
1733141829852022800,2.568022705078125,-0.04833494871854782,-1.270024061203003,-0.9005213379859924
1733141829862133500,2.578133544921875,0.05286218971014023,-1.3978520631790161,0.22862564027309418
1733141829872254500,2.58825439453125,0.21158191561698914,-1.2561759948730469,0.7069152593612671
1733141829882382000,2.598382080078125,0.33621418476104736,-1.307307243347168,0.6419360637664795
1733141829892509700,2.608509765625,0.3436708152294159,-1.1741530895233154,0.354323148727417
1733141829902627600,2.618627685546875,0.32769230008125305,-1.1560441255569458,-0.13142313063144684
1733141829912548900,2.628548828125,0.30425718426704407,-1.2497845888137817,-0.6949313879013062
1733141829922479900,2.63847998046875,0.22223423421382904,-1.4319394826889038,-1.2552440166473389
1733141829932419600,2.648419677734375,0.10399337112903595,-1.5938549041748047,-1.7931866645812988
1733141829942376700,2.658376708984375,0.0560578890144825,-1.5246148109436035,-2.2661499977111816
1733141829952349200,2.66834912109375,0.08908011019229889,-1.276415467262268,-2.6080899238586426
1733141829962343700,2.67834375,0.1093195378780365,-1.037803292274475,-2.7732009887695312
1733141829972356900,2.68835693359375,0.08588441461324692,-0.9429975152015686,-2.7668097019195557
1733141829982393600,2.6983935546875,0.02516612969338894,-0.9866721034049988,-2.6357860565185547
1733141829992448500,2.708448486328125,-0.02489982172846794,-1.0750864744186401,-2.507957935333252
1733141830002525000,2.71852490234375,-0.03022598661482334,-1.1805444955825806,-2.4877185821533203
1733141830012616000,2.728615966796875,-0.0014646954368799925,-1.286002516746521,-2.5761330127716064
1733141830022723800,2.738723876953125,0.06031882017850876,-1.3094377517700195,-2.6560254096984863
1733141830032845300,2.74884521484375,0.1306242048740387,-1.1176958084106445,-2.5111536979675293
1733141830042976500,2.7589765625,0.14447222650051117,-0.7714950442314148,-2.1361916065216064
1733141830053113300,2.76911328125,0.1093195378780365,-0.38588064908981323,-1.600379467010498
1733141830063252000,2.779251953125,0.04860125854611397,-0.0023967742454260588,-0.9569787383079529
1733141830073335800,2.789335693359375,-0.012117025442421436,0.3363473415374756,-0.3167736828327179
1733141830083378200,2.799378173828125,-0.06005251035094261,0.5600462555885315,0.2371474951505661
1733141830093419300,2.809419189453125,-0.06537867337465286,0.76244056224823,0.8134385943412781
1733141830103460000,2.819460205078125,-0.05792204663157463,1.0159659385681152,1.4484505653381348
1733141830113501200,2.829501220703125,-0.05259587988257408,1.4271459579467773,2.243114471435547
1733141830123542300,2.839542236328125,-0.05685681104660034,2.060959577560425,3.148562431335449
1733141830133583600,2.84958349609375,-0.08455286920070648,2.767209053039551,3.949617862701416
1733141830143625000,2.859625,-0.09413997083902359,3.4885048866271973,4.571713924407959
1733141830153666600,2.86966650390625,-0.1452711522579193,4.000882148742676,5.008459568023682
1733141830163708400,2.87970849609375,-0.32103461027145386,4.0722527503967285,5.313116073608398
1733141830173750300,2.889750244140625,-0.5244941115379333,4.270386219024658,5.491009712219238
1733141830183792000,2.899792236328125,-0.7663019895553589,0.8838770985603333,3.6992878913879395
1733141830193834200,2.909834228515625,-1.1433944702148438,0.13714875280857086,-2.891441822052002
1733141830203760400,2.919760498046875,-0.3359478712081909,0.2905423045158386,-1.8805357217788696
1733141830213696000,2.929696044921875,-0.05792204663157463,-0.4210333526134491,-0.7833457589149475
1733141830223645000,2.93964501953125,0.07310161739587784,0.3544562757015228,0.44380271434783936
1733141830233610200,2.9496103515625,0.1093195378780365,0.3246297538280487,0.9806801676750183
1733141830243594500,2.959594482421875,0.09973244369029999,0.0689738392829895,1.1884006261825562
1733141830253599000,2.969598876953125,0.03049229457974434,-0.06524552404880524,0.9284837245941162
1733141830263624400,2.97962451171875,-0.04407401755452156,-0.023701434955000877,0.31597474217414856
1733141830273667600,2.98966748046875,-0.09946613013744354,0.08708280324935913,-0.10159660130739212
1733141830283731200,2.999731201171875,-0.11757509410381317,0.09666989743709564,-0.1995980441570282
1733141830293813000,3.00981298828125,-0.1356840580701828,0.025299284607172012,-0.1367492824792862
1733141830303911000,3.019910888671875,-0.10479229688644409,-0.031158065423369408,-0.04300878196954727
1733141830314017300,3.030017333984375,-0.04407401755452156,-0.008788172155618668,-0.013182258233428001
1733141830324134100,3.040134033203125,-0.03661738336086273,0.027429750189185143,0.0038614696823060513
1733141830334258000,3.0502578125,-0.05685681104660034,0.011451254598796368,0.04753602296113968
1733141830344344000,3.060343994140625,-0.07922670245170593,-0.030092833563685417,0.08481918275356293
1733141830354431700,3.070431640625,-0.09840089827775955,-0.04926702752709389,0.07416684925556183
1733141830364426500,3.080426513671875,-0.09520520269870758,-0.03648423030972481,0.0347532257437706
1733141830374423300,3.09042333984375,-0.06857437640428543,-0.016244804486632347,0.007057168986648321
1733141830384423700,3.100423583984375,-0.03768261894583702,-0.015179570764303207,0.0017310036346316338
1733141830394429200,3.11042919921875,-0.005725627299398184,-0.011983871459960938,0.009187635034322739
1733141830404440800,3.12044091796875,0.02623136341571808,0.017842652276158333,0.02090519852936268
1733141830414460000,3.1304599609375,0.05286218971014023,0.04340824484825134,0.04007939249277115
1733141830424487000,3.14048681640625,0.07523208111524582,0.05725627392530441,0.05499265342950821
1733141830434522000,3.150522216796875,0.08588441461324692,0.06684337556362152,0.05499265342950821
1733141830444565200,3.160565185546875,0.08694964647293091,0.07536523789167404,0.04434032365679741
1733141830454616000,3.170615966796875,0.07310161739587784,0.07643046975135803,0.02090519852936268
1733141830464675300,3.18067529296875,0.04753602296113968,0.07856093347072601,-0.012117025442421436
1733141830474740500,3.190740478515625,0.02090519852936268,0.08282186836004257,-0.04513924941420555
1733141830484810800,3.200810791015625,0.008122402243316174,0.08814803510904312,-0.06431344151496887
1733141830494884400,3.21088427734375,0.01664426550269127,0.07856093347072601,-0.06324820965528488
1733141830504960000,3.2209599609375,0.03688369318842888,0.05299534276127815,-0.04726971685886383
1733141830515036400,3.231036376953125,0.05499265342950821,0.021038351580500603,-0.01957365684211254
1733141830525093000,3.241093017578125,0.06884068250656128,-0.014114337973296642,0.012383334338665009
1733141830535152400,3.25115234375,0.07310161739587784,-0.05459319427609444,0.04220985993742943
1733141830545182000,3.261181884765625,0.07097115367650986,-0.08548495173454285,0.05712312087416649
1733141830555211800,3.271211669921875,0.0560578890144825,-0.09613727778196335,0.04647079110145569
1733141830565242400,3.281242431640625,0.04007939249277115,-0.08761541545391083,0.02303566411137581
1733141830575278800,3.29127880859375,0.02836182899773121,-0.06418029218912125,-0.0014646954368799925
1733141830585321200,3.3013212890625,0.02516612969338894,-0.03967992961406708,-0.0185084231197834
1733141830595364600,3.311364501953125,0.02303566411137581,-0.021570969372987747,-0.014247491955757141
1733141830605410600,3.32141064453125,0.02197043038904667,-0.020505735650658607,0.005991935729980469
1733141830615457300,3.331457275390625,0.01664426550269127,-0.04287562891840935,0.03262276202440262
1733141830625504000,3.34150390625,0.013448567129671574,-0.06204982474446297,0.05179695412516594
1733141830635551000,3.351551025390625,0.007057168986648321,-0.06737598776817322,0.05712312087416649
1733141830645593900,3.36159375,0.000665770610794425,-0.0588541254401207,0.05179695412516594
1733141830655635200,3.37163525390625,-0.007856093347072601,-0.03648423030972481,0.04007939249277115
1733141830665676300,3.38167626953125,-0.013182258233428001,-0.008788172155618668,0.02729659713804722
1733141830675717600,3.391717529296875,-0.013182258233428001,0.013581721112132072,0.01983996480703354
1733141830685759000,3.401759033203125,-0.011051792651414871,0.025299284607172012,0.01983996480703354
1733141830695800300,3.41180029296875,-0.005725627299398184,0.021038351580500603,0.02729659713804722
1733141830705841700,3.421841552734375,-0.0003994623839389533,0.014646953903138638,0.03901416063308716
1733141830715883300,3.43188330078125,0.0038614696823060513,0.011451254598796368,0.05499265342950821
1733141830725927000,3.441927001953125,0.0038614696823060513,0.00399462366476655,0.07097115367650986
1733141830735968800,3.45196875,-0.0003994623839389533,0.002929390873759985,0.07523208111524582
1733141830746009600,3.462009521484375,-0.005725627299398184,0.010386021807789803,0.07203638553619385
1733141830756050400,3.472050537109375,-0.012117025442421436,0.027429750189185143,0.05818835273385048
1733141830766096100,3.48209619140625,-0.015312724746763706,0.04553871229290962,0.03368799388408661
1733141830776137000,3.492136962890625,-0.015312724746763706,0.05725627392530441,0.01770949922502041
1733141830786182400,3.502182373046875,-0.013182258233428001,0.0583215095102787,0.011318100616335869
1733141830796219600,3.5122197265625,-0.011051792651414871,0.05512581020593643,0.013448567129671574
1733141830806261800,3.52226171875,-0.012117025442421436,0.04447348043322563,0.02197043038904667
1733141830816303000,3.53230322265625,-0.015312724746763706,0.03169068321585655,0.03368799388408661
1733141830826343200,3.54234326171875,-0.02276935614645481,0.017842652276158333,0.03901416063308716
1733141830836388000,3.55238818359375,-0.02916075475513935,0.011451254598796368,0.04114462435245514
1733141830846433500,3.56243359375,-0.02916075475513935,0.009320789016783237,0.03262276202440262
1733141830856483300,3.5724833984375,-0.02703028731048107,0.017842652276158333,0.01877473294734955
1733141830866512100,3.58251220703125,-0.02489982172846794,0.03595161437988281,0.011318100616335869
1733141830876541200,3.592541259765625,-0.02703028731048107,0.04553871229290962,0.009187635034322739
1733141830886576000,3.602576171875,-0.02703028731048107,0.04553871229290962,0.007057168986648321
1733141830896612000,3.612612060546875,-0.02063889056444168,0.05725627392530441,0.005991935729980469
1733141830906654000,3.622654052734375,-0.011051792651414871,0.05512581020593643,0.004926702938973904
1733141830916701400,3.632701416015625,-0.005725627299398184,0.03382114693522453,0.0017310036346316338
1733141830926754300,3.64275439453125,-0.004660394508391619,0.008255556225776672,0.000665770610794425
1733141830936803000,3.652802978515625,-0.006790860556066036,-0.008788172155618668,0.0017310036346316338
1733141830946856400,3.6628564453125,-0.012117025442421436,-0.010918638668954372,0.000665770610794425
1733141830956886500,3.672886474609375,-0.01744319126009941,-0.0002663082559593022,-0.007856093347072601
1733141830966921700,3.682921630859375,-0.01957365684211254,0.009320789016783237,-0.01957365684211254
1733141830976957700,3.692957763671875,-0.015312724746763706,0.015712186694145203,-0.02489982172846794
1733141830986994200,3.702994140625,-0.011051792651414871,0.017842652276158333,-0.02170412242412567
1733141830997036300,3.713036376953125,-0.007856093347072601,0.014646953903138638,-0.01637795753777027
1733141831007079200,3.7230791015625,0.000665770610794425,0.013581721112132072,-0.007856093347072601
1733141831017127200,3.733127197265625,0.011318100616335869,0.017842652276158333,-0.0014646954368799925
1733141831027180300,3.74318017578125,0.013448567129671574,0.017842652276158333,0.0027962366584688425
1733141831037237500,3.753237548828125,0.010252867825329304,0.011451254598796368,0.008122402243316174
1733141831047262200,3.76326220703125,-0.0014646954368799925,0.009320789016783237,0.010252867825329304
1733141831057287400,3.773287353515625,-0.011051792651414871,0.021038351580500603,0.009187635034322739
1733141831067318800,3.78331884765625,-0.014247491955757141,0.03382114693522453,0.007057168986648321
1733141831077356300,3.793356201171875,-0.013182258233428001,0.03914731368422508,0.0017310036346316338
1733141831087400000,3.80339990234375,-0.005725627299398184,0.04021254554390907,-0.0025299284607172012
1733141831097449200,3.81344921875,0.004926702938973904,0.04447348043322563,-0.008921326138079166
1733141831107499300,3.823499267578125,0.012383334338665009,0.04873441159725189,-0.015312724746763706
1733141831117554200,3.83355419921875,0.014513799920678139,0.04127778112888336,-0.01957365684211254
1733141831127613200,3.84361328125,0.011318100616335869,0.023168819025158882,-0.02063889056444168
1733141831137675800,3.85367578125,0.004926702938973904,0.015712186694145203,-0.01744319126009941
1733141831147740700,3.86374072265625,-0.0003994623839389533,0.022103585302829742,-0.015312724746763706
1733141831157806800,3.873806884765625,-0.012117025442421436,0.024234050884842873,-0.01637795753777027
1733141831167873300,3.883873291015625,-0.02276935614645481,0.027429750189185143,-0.01637795753777027
1733141831177923300,3.89392333984375,-0.02596505545079708,0.03808208182454109,-0.01957365684211254
1733141831187921000,3.9039208984375,-0.02170412242412567,0.04553871229290962,-0.02276935614645481
1733141831197921800,3.913921875,-0.014247491955757141,0.04021254554390907,-0.02063889056444168
1733141831207927800,3.923927734375,-0.011051792651414871,0.027429750189185143,-0.014247491955757141
1733141831217940000,3.93393994140625,-0.007856093347072601,0.021038351580500603,-0.008921326138079166
1733141831227959300,3.943959228515625,-0.004660394508391619,0.017842652276158333,-0.006790860556066036
1733141831237986600,3.953986572265625,-0.004660394508391619,0.016777420416474342,-0.009986559860408306
1733141831248021800,3.964021728515625,-0.011051792651414871,0.014646953903138638,-0.014247491955757141
1733141831258065000,3.97406494140625,-0.0185084231197834,0.018907885998487473,-0.02063889056444168
1733141831268115500,3.984115478515625,-0.02170412242412567,0.028494983911514282,-0.02276935614645481
1733141831278168300,3.994168212890625,-0.0185084231197834,0.0370168462395668,-0.02063889056444168
1733141831288227600,4.0042275390625,-0.012117025442421436,0.04234301298856735,-0.02063889056444168
1733141831298292200,4.014292236328125,-0.006790860556066036,0.05193011090159416,-0.02276935614645481
1733141831308345600,4.024345703125,-0.0003994623839389533,0.06790860742330551,-0.02596505545079708
1733141831318403600,4.034403564453125,0.005991935729980469,0.0689738392829895,-0.03022598661482334
1733141831328464600,4.044464599609375,0.011318100616335869,0.05086487531661987,-0.02916075475513935
1733141831338528500,4.054528564453125,0.012383334338665009,0.023168819025158882,-0.013182258233428001
1733141831348594000,4.064593994140625,0.010252867825329304,0.00399462366476655,0.010252867825329304
1733141831358554400,4.074554443359375,0.005991935729980469,0.0007989247678779066,0.02090519852936268
1733141831368522800,4.084522705078125,-0.0025299284607172012,0.013581721112132072,0.02303566411137581
1733141831378501600,4.094501708984375,-0.008921326138079166,0.021038351580500603,0.01877473294734955
1733141831388493300,4.104493408203125,-0.011051792651414871,0.024234050884842873,0.004926702938973904
1733141831398499300,4.114499267578125,-0.012117025442421436,0.023168819025158882,-0.004660394508391619
1733141831408515600,4.124515625,-0.013182258233428001,0.017842652276158333,-0.005725627299398184
1733141831418547200,4.134547119140625,-0.014247491955757141,0.011451254598796368,-0.0014646954368799925
1733141831428594400,4.144594482421875,-0.013182258233428001,0.008255556225776672,0.0017310036346316338
1733141831438651600,4.154651611328125,-0.011051792651414871,0.0061250897124409676,0.0027962366584688425
1733141831448722200,4.16472216796875,-0.014247491955757141,0.0050598569214344025,0.0017310036346316338
1733141831458799900,4.1747998046875,-0.014247491955757141,0.0050598569214344025,-0.0003994623839389533
1733141831468887800,4.1848876953125,-0.013182258233428001,0.010386021807789803,-0.0025299284607172012
1733141831478978800,4.194978759765625,-0.011051792651414871,0.022103585302829742,-0.0003994623839389533
1733141831489071600,4.205071533203125,-0.009986559860408306,0.027429750189185143,0.0038614696823060513
1733141831499168300,4.215168212890625,-0.008921326138079166,0.026364516466856003,0.004926702938973904
1733141831509179100,4.22517919921875,-0.007856093347072601,0.021038351580500603,0.004926702938973904
1733141831519196200,4.235196044921875,-0.005725627299398184,0.014646953903138638,0.007057168986648321
1733141831529220000,4.24522021484375,-0.00359516148455441,0.013581721112132072,0.008122402243316174
1733141831539246300,4.255246337890625,-0.0025299284607172012,0.017842652276158333,0.008122402243316174
1733141831549280300,4.2652802734375,-0.0025299284607172012,0.014646953903138638,0.011318100616335869
1733141831559317000,4.27531689453125,-0.005725627299398184,-0.0002663082559593022,0.01877473294734955
1733141831569361700,4.285361572265625,-0.009986559860408306,-0.019440501928329468,0.02836182899773121
1733141831579414000,4.2954140625,-0.011051792651414871,-0.03328853100538254,0.03368799388408661
1733141831589468000,4.305468017578125,-0.006790860556066036,-0.029027599841356277,0.03368799388408661
1733141831599528000,4.31552783203125,-0.006790860556066036,-0.018375270068645477,0.02729659713804722
1733141831609588200,4.325588134765625,-0.007856093347072601,-0.0077229393646121025,0.02090519852936268
1733141831619652900,4.33565283203125,-0.009986559860408306,0.0018641578499227762,0.010252867825329304
1733141831629720800,4.345720947265625,-0.013182258233428001,0.008255556225776672,0.004926702938973904
1733141831639721200,4.35572119140625,-0.014247491955757141,0.0050598569214344025,0.0027962366584688425
1733141831649727700,4.365727783203125,-0.013182258233428001,-0.00452724052593112,0.008122402243316174
1733141831659737000,4.375737060546875,-0.012117025442421436,-0.015179570764303207,0.015579032711684704
1733141831669755400,4.38575537109375,-0.008921326138079166,-0.018375270068645477,0.02303566411137581
1733141831679778000,4.395778076171875,-0.005725627299398184,-0.011983871459960938,0.02410089783370495
1733141831689806000,4.40580615234375,-0.00359516148455441,-0.00452724052593112,0.02410089783370495
1733141831699844400,4.41584423828125,-0.00359516148455441,-0.0034620072692632675,0.02729659713804722
1733141831709887700,4.4258876953125,-0.004660394508391619,-0.010918638668954372,0.03368799388408661
1733141831719940900,4.43594091796875,-0.004660394508391619,-0.019440501928329468,0.04327509179711342
1733141831730003000,4.4460029296875,-0.0014646954368799925,-0.025831900537014008,0.05073172226548195
1733141831740072000,4.456072021484375,0.000665770610794425,-0.030092833563685417,0.05499265342950821
1733141831750147000,4.46614697265625,0.0027962366584688425,-0.026897134259343147,0.05286218971014023
1733141831760227000,4.47622705078125,0.0027962366584688425,-0.022636201232671738,0.04966649040579796
1733141831770310100,4.48631005859375,-0.0003994623839389533,-0.019440501928329468,0.04647079110145569
1733141831780394500,4.49639453125,-0.00359516148455441,-0.015179570764303207,0.04753602296113968
1733141831790466600,4.506466552734375,-0.0025299284607172012,-0.013049104250967503,0.04327509179711342
1733141831800508700,4.5165087890625,-0.0014646954368799925,-0.008788172155618668,0.0347532257437706
1733141831810429400,4.526429443359375,-0.0025299284607172012,-0.00452724052593112,0.02942706272006035
1733141831820359700,4.536359619140625,-0.0014646954368799925,0.0018641578499227762,0.02410089783370495
1733141831830303700,4.5463037109375,0.0017310036346316338,0.013581721112132072,0.015579032711684704
1733141831840260400,4.55626025390625,0.004926702938973904,0.027429750189185143,0.008122402243316174
1733141831850236700,4.566236572265625,0.008122402243316174,0.022103585302829742,-0.004660394508391619
1733141831860230100,4.576230224609375,0.008122402243316174,0.012516488321125507,-0.014247491955757141
1733141831870246400,4.586246337890625,0.005991935729980469,0.002929390873759985,-0.01637795753777027
1733141831880281000,4.596281005859375,0.0027962366584688425,-0.009853405877947807,-0.014247491955757141
1733141831890338600,4.606338623046875,-0.0003994623839389533,-0.014114337973296642,-0.013182258233428001
1733141831900417300,4.616417236328125,-0.0025299284607172012,-0.0034620072692632675,-0.015312724746763706
1733141831910515000,4.626514892578125,-0.0014646954368799925,0.0061250897124409676,-0.02170412242412567
1733141831920628500,4.63662841796875,-0.0014646954368799925,0.013581721112132072,-0.02489982172846794
1733141831930749400,4.64674951171875,-0.0003994623839389533,0.016777420416474342,-0.02489982172846794
1733141831940879000,4.656879150390625,0.0038614696823060513,0.019973119720816612,-0.01957365684211254
1733141831951014100,4.66701416015625,0.009187635034322739,0.015712186694145203,-0.012117025442421436
1733141831961150000,4.67714990234375,0.011318100616335869,0.00399462366476655,0.0017310036346316338
1733141831971217200,4.687217041015625,0.008122402243316174,-0.0077229393646121025,0.01664426550269127
1733141831981258800,4.6972587890625,0.0017310036346316338,-0.013049104250967503,0.02197043038904667
1733141831991300600,4.707300537109375,-0.004660394508391619,-0.009853405877947807,0.02303566411137581
1733141832001342200,4.71734228515625,-0.006790860556066036,0.0018641578499227762,0.01877473294734955
1733141832011383800,4.7273837890625,-0.006790860556066036,0.013581721112132072,0.014513799920678139
1733141832021425400,4.73742529296875,-0.004660394508391619,0.023168819025158882,0.008122402243316174
1733141832031346700,4.7473466796875,-0.004660394508391619,0.03169068321585655,-0.0014646954368799925
1733141832041277400,4.75727734375,-0.004660394508391619,0.0370168462395668,-0.006790860556066036
1733141832051221800,4.7672216796875,-0.005725627299398184,0.03808208182454109,-0.006790860556066036
1733141832061178600,4.7771787109375,-0.007856093347072601,0.03169068321585655,-0.0014646954368799925
1733141832071155200,4.7871552734375,-0.007856093347072601,0.017842652276158333,0.000665770610794425
1733141832081153500,4.797153564453125,-0.006790860556066036,0.009320789016783237,0.004926702938973904
1733141832091173400,4.80717333984375,-0.005725627299398184,0.0061250897124409676,0.007057168986648321
1733141832101210600,4.817210693359375,-0.006790860556066036,0.008255556225776672,0.0027962366584688425
1733141832111270100,4.827270263671875,-0.004660394508391619,0.016777420416474342,-0.0025299284607172012
1733141832121350400,4.837350341796875,-0.0014646954368799925,0.023168819025158882,-0.005725627299398184
1733141832131443700,4.847443603515625,-0.0003994623839389533,0.026364516466856003,-0.004660394508391619
1733141832141552600,4.857552734375,-0.0003994623839389533,0.024234050884842873,-0.0003994623839389533
1733141832151674000,4.867674072265625,-0.0014646954368799925,0.011451254598796368,0.007057168986648321
1733141832161799000,4.877798828125,-0.0025299284607172012,-0.0034620072692632675,0.011318100616335869
1733141832171929000,4.88792919921875,-0.006790860556066036,-0.011983871459960938,0.010252867825329304
1733141832181972200,4.89797216796875,-0.008921326138079166,-0.009853405877947807,0.0038614696823060513
1733141832192020000,4.90802001953125,-0.011051792651414871,-0.0023967742454260588,-0.006790860556066036
1733141832202057200,4.91805712890625,-0.013182258233428001,0.00719032296910882,-0.01637795753777027
1733141832212094700,4.9280947265625,-0.011051792651414871,0.016777420416474342,-0.02703028731048107
1733141832222137000,4.93813720703125,-0.009986559860408306,0.018907885998487473,-0.02916075475513935
1733141832232179700,4.9481796875,-0.009986559860408306,0.009320789016783237,-0.02276935614645481
1733141832242227000,4.95822705078125,-0.007856093347072601,0.009320789016783237,-0.013182258233428001
1733141832252278800,4.96827880859375,-0.004660394508391619,0.012516488321125507,-0.006790860556066036
1733141832262333400,4.97833349609375,0.0017310036346316338,0.014646953903138638,-0.009986559860408306
1733141832272391400,4.988391357421875,0.000665770610794425,0.016777420416474342,-0.008921326138079166
1733141832282451700,4.99845166015625,-0.00359516148455441,0.019973119720816612,-0.0025299284607172012
1733141832292512000,5.008511962890625,-0.004660394508391619,0.018907885998487473,-0.00359516148455441
1733141832302473500,5.018473388671875,-0.0025299284607172012,0.030625449493527412,-0.008921326138079166
1733141832312438300,5.028438232421875,-0.0003994623839389533,0.03382114693522453,-0.014247491955757141
1733141832322414000,5.0384140625,-0.0025299284607172012,0.024234050884842873,-0.01957365684211254
1733141832332398300,5.0483984375,-0.00359516148455441,0.015712186694145203,-0.02276935614645481
1733141832342397400,5.0583974609375,-0.00359516148455441,0.0018641578499227762,-0.01637795753777027
1733141832352408000,5.068407958984375,-0.0025299284607172012,-0.009853405877947807,-0.008921326138079166
1733141832362436000,5.07843603515625,-0.0003994623839389533,-0.013049104250967503,-0.009986559860408306
1733141832372476000,5.088475830078125,0.0017310036346316338,-0.006657706573605537,-0.01637795753777027
1733141832382532400,5.098532470703125,0.0027962366584688425,0.002929390873759985,-0.02170412242412567
1733141832392599000,5.10859912109375,0.000665770610794425,0.009320789016783237,-0.02489982172846794
1733141832402679600,5.118679443359375,-0.0014646954368799925,0.009320789016783237,-0.02489982172846794
1733141832412767000,5.12876708984375,-0.0014646954368799925,0.0061250897124409676,-0.02170412242412567
1733141832422859500,5.138859619140625,0.0027962366584688425,0.0050598569214344025,-0.01744319126009941
1733141832432959700,5.148959716796875,0.005991935729980469,0.002929390873759985,-0.015312724746763706
1733141832443064300,5.159064208984375,0.008122402243316174,-0.0002663082559593022,-0.011051792651414871
1733141832453099000,5.16909912109375,0.005991935729980469,0.0050598569214344025,-0.00359516148455441
1733141832463138800,5.179138916015625,0.0027962366584688425,0.015712186694145203,-0.00359516148455441
1733141832473183500,5.18918359375,-0.0003994623839389533,0.025299284607172012,-0.005725627299398184
1733141832483232800,5.199232666015625,-0.0003994623839389533,0.028494983911514282,-0.008921326138079166
1733141832493286000,5.209285888671875,-0.0003994623839389533,0.029560215771198273,-0.013182258233428001
1733141832503342800,5.2193427734375,-0.0003994623839389533,0.028494983911514282,-0.01957365684211254
1733141832513402400,5.22940234375,-0.0014646954368799925,0.022103585302829742,-0.01744319126009941
1733141832523463700,5.239463623046875,-0.0014646954368799925,0.015712186694145203,-0.008921326138079166
1733141832533526300,5.2495263671875,0.000665770610794425,0.012516488321125507,-0.004660394508391619
1733141832543589000,5.259589111328125,0.0017310036346316338,0.015712186694145203,0.000665770610794425
1733141832553636900,5.269636962890625,0.0017310036346316338,0.021038351580500603,-0.0003994623839389533
1733141832563644400,5.27964453125,0.0038614696823060513,0.023168819025158882,-0.0025299284607172012
1733141832573654800,5.28965478515625,0.0017310036346316338,0.019973119720816612,-0.004660394508391619
1733141832583668700,5.299668701171875,-0.00359516148455441,0.016777420416474342,-0.008921326138079166
1733141832593687800,5.309687744140625,-0.006790860556066036,0.016777420416474342,-0.01744319126009941
1733141832603707400,5.319707275390625,-0.008921326138079166,0.014646953903138638,-0.02276935614645481
1733141832613733400,5.3297333984375,-0.009986559860408306,0.008255556225776672,-0.01957365684211254
1733141832623766000,5.33976611328125,-0.011051792651414871,-0.00452724052593112,-0.012117025442421436
1733141832633805600,5.3498056640625,-0.009986559860408306,-0.020505735650658607,-0.00359516148455441
1733141832643851500,5.3598515625,-0.008921326138079166,-0.03222329914569855,0.0038614696823060513
1733141832653904000,5.36990380859375,-0.008921326138079166,-0.031158065423369408,0.009187635034322739
1733141832663961600,5.379961669921875,-0.008921326138079166,-0.022636201232671738,0.004926702938973904
1733141832674024200,5.390024169921875,-0.008921326138079166,-0.009853405877947807,-0.0003994623839389533
1733141832684090400,5.40009033203125,-0.005725627299398184,0.002929390873759985,-0.005725627299398184
1733141832694158800,5.410158935546875,-0.00359516148455441,0.00719032296910882,-0.005725627299398184
1733141832704228900,5.420228759765625,-0.0014646954368799925,0.00399462366476655,0.0017310036346316338
1733141832714184200,5.43018408203125,-0.0014646954368799925,0.002929390873759985,0.012383334338665009
1733141832724142800,5.440142822265625,0.0027962366584688425,0.0018641578499227762,0.012383334338665009
1733141832734112800,5.45011279296875,0.007057168986648321,0.0050598569214344025,0.007057168986648321
1733141832744096800,5.4600966796875,0.004926702938973904,0.009320789016783237,0.011318100616335869
1733141832754096400,5.470096435546875,0.000665770610794425,0.00399462366476655,0.01664426550269127
1733141832764110800,5.48011083984375,0.0017310036346316338,0.010386021807789803,0.01877473294734955
1733141832774139600,5.4901396484375,0.0038614696823060513,0.021038351580500603,0.014513799920678139
1733141832784180500,5.500180419921875,0.004926702938973904,0.018907885998487473,0.004926702938973904
1733141832794233300,5.5102333984375,0.0038614696823060513,0.012516488321125507,0.0027962366584688425
1733141832804297200,5.520297119140625,0.000665770610794425,-0.0023967742454260588,0.010252867825329304
1733141832814370600,5.53037060546875,-0.0025299284607172012,-0.013049104250967503,0.01983996480703354
1733141832824451800,5.540451904296875,-0.0014646954368799925,-0.011983871459960938,0.01983996480703354
1733141832834539000,5.5505390625,-0.0003994623839389533,0.002929390873759985,0.011318100616335869
1733141832844634400,5.56063427734375,0.000665770610794425,0.014646953903138638,0.0017310036346316338
1733141832854735000,5.570735107421875,-0.0014646954368799925,0.011451254598796368,-0.0003994623839389533
1733141832864809200,5.580809326171875,-0.00359516148455441,0.0050598569214344025,0.004926702938973904
1733141832874873000,5.590873046875,-0.00359516148455441,-0.006657706573605537,0.011318100616335869
1733141832884891100,5.60089111328125,-0.0014646954368799925,-0.021570969372987747,0.01664426550269127
1733141832894910000,5.610909912109375,-0.0025299284607172012,-0.029027599841356277,0.01983996480703354
1733141832904930800,5.620930908203125,-0.0025299284607172012,-0.019440501928329468,0.012383334338665009
1733141832914954000,5.6309541015625,-0.0025299284607172012,0.0007989247678779066,0.0017310036346316338
1733141832924985000,5.640985107421875,-0.004660394508391619,0.015712186694145203,-0.008921326138079166
1733141832935020800,5.651020751953125,-0.005725627299398184,0.022103585302829742,-0.013182258233428001
1733141832945060000,5.66106005859375,-0.004660394508391619,0.018907885998487473,-0.013182258233428001
1733141832955103000,5.67110302734375,-0.0003994623839389533,0.014646953903138638,-0.009986559860408306
1733141832965148700,5.681148681640625,0.0038614696823060513,0.010386021807789803,-0.009986559860408306
1733141832975197400,5.691197509765625,0.005991935729980469,0.00399462366476655,-0.008921326138079166
1733141832985253600,5.701253662109375,0.005991935729980469,-0.0023967742454260588,-0.006790860556066036
1733141832995315200,5.711315185546875,0.005991935729980469,-0.0002663082559593022,-0.008921326138079166
1733141833005377000,5.721376953125,0.0038614696823060513,0.002929390873759985,-0.008921326138079166
1733141833015434000,5.73143408203125,0.0017310036346316338,0.00719032296910882,-0.005725627299398184
1733141833025475600,5.7414755859375,0.0017310036346316338,0.010386021807789803,0.0017310036346316338
1733141833035516400,5.751516357421875,0.0017310036346316338,0.008255556225776672,0.0038614696823060513
1733141833045557200,5.76155712890625,0.000665770610794425,0.0007989247678779066,0.0038614696823060513
1733141833055598000,5.77159814453125,-0.0003994623839389533,-0.0023967742454260588,0.000665770610794425
1733141833065639200,5.78163916015625,-0.00359516148455441,-0.0034620072692632675,-0.004660394508391619
1733141833075680300,5.79168017578125,-0.008921326138079166,-0.00452724052593112,-0.006790860556066036
1733141833085721600,5.8017216796875,-0.008921326138079166,-0.005592473316937685,-0.005725627299398184
1733141833095763200,5.81176318359375,-0.005725627299398184,-0.013049104250967503,-0.00359516148455441
1733141833105809400,5.821809326171875,-0.0014646954368799925,-0.021570969372987747,0.0027962366584688425
1733141833115850800,5.831850830078125,0.0017310036346316338,-0.022636201232671738,0.009187635034322739
1733141833125896400,5.841896484375,0.000665770610794425,-0.019440501928329468,0.010252867825329304
1733141833135935200,5.851935302734375,-0.0003994623839389533,-0.010918638668954372,0.004926702938973904
1733141833145978600,5.861978515625,-0.0003994623839389533,0.0007989247678779066,-0.00359516148455441
1733141833156020000,5.87202001953125,-0.0003994623839389533,0.008255556225776672,-0.009986559860408306
1733141833166066000,5.88206591796875,-0.0014646954368799925,0.009320789016783237,-0.007856093347072601
1733141833176100600,5.8921005859375,-0.0025299284607172012,0.00719032296910882,-0.0003994623839389533
1733141833186135300,5.90213525390625,0.0017310036346316338,0.0018641578499227762,0.007057168986648321
1733141833196170500,5.91217041015625,0.005991935729980469,-0.006657706573605537,0.012383334338665009
1733141833206208800,5.922208740234375,0.007057168986648321,-0.014114337973296642,0.02303566411137581
1733141833216247600,5.93224755859375,0.004926702938973904,-0.020505735650658607,0.02942706272006035
1733141833226292200,5.942292236328125,0.004926702938973904,-0.008788172155618668,0.02729659713804722
1733141833236337400,5.95233740234375,0.004926702938973904,0.012516488321125507,0.015579032711684704
1733141833246388000,5.962387939453125,0.0017310036346316338,0.022103585302829742,-0.004660394508391619
1733141833256443100,5.972443115234375,-0.0014646954368799925,0.022103585302829742,-0.0185084231197834
1733141833266502100,5.982502197265625,-0.005725627299398184,0.015712186694145203,-0.012117025442421436
1733141833276564200,5.992564208984375,-0.007856093347072601,0.002929390873759985,0.005991935729980469
1733141833286560500,6.002560546875,-0.006790860556066036,-0.0002663082559593022,0.02516612969338894
1733141833296563200,6.012563232421875,-0.0025299284607172012,0.00719032296910882,0.03581846132874489
1733141833306573800,6.02257373046875,0.000665770610794425,0.022103585302829742,0.04327509179711342
1733141833316593200,6.03259326171875,-0.0003994623839389533,0.03595161437988281,0.05499265342950821
1733141833326619400,6.042619384765625,-0.0025299284607172012,0.04553871229290962,0.07310161739587784
1733141833336655000,6.052655029296875,-0.0014646954368799925,0.04553871229290962,0.09014534205198288
1733141833346700500,6.062700439453125,-0.0025299284607172012,0.03595161437988281,0.1093195378780365
1733141833356755000,6.0727548828125,0.0017310036346316338,0.030625449493527412,0.1199718713760376
1733141833366816800,6.082816650390625,0.011318100616335869,0.03169068321585655,0.11358047276735306
1733141833376885800,6.0928857421875,0.015579032711684704,0.03914731368422508,0.098667211830616
1733141833386960600,6.102960693359375,0.008122402243316174,0.04021254554390907,0.08481918275356293
1733141833397039400,6.113039306640625,-0.006790860556066036,0.0370168462395668,0.07842778414487839
1733141833407120600,6.12312060546875,-0.01744319126009941,0.03488638252019882,0.07097115367650986
1733141833417202700,6.13320263671875,-0.02276935614645481,0.023168819025158882,0.06351451575756073
1733141833427240000,6.143239990234375,-0.02276935614645481,-0.00452724052593112,0.05392742156982422
1733141833437278500,6.153278564453125,-0.0238345880061388,-0.029027599841356277,0.04327509179711342
1733141833447318000,6.163318115234375,-0.0238345880061388,-0.03648423030972481,0.02623136341571808
1733141833457358800,6.17335888671875,-0.02703028731048107,-0.022636201232671738,0.007057168986648321
1733141833467310300,6.183310302734375,-0.02809552103281021,0.008255556225776672,-0.011051792651414871
1733141833477270000,6.19327001953125,-0.02703028731048107,0.03382114693522453,-0.0238345880061388
1733141833487241200,6.2032412109375,-0.02170412242412567,0.04447348043322563,-0.03129122033715248
1733141833497226200,6.213226318359375,-0.01744319126009941,0.04021254554390907,-0.03555215150117874
1733141833507226600,6.2232265625,-0.011051792651414871,0.0370168462395668,-0.03874785080552101
1733141833517238500,6.233238525390625,-0.007856093347072601,0.0370168462395668,-0.04513924941420555
1733141833527267600,6.243267578125,-0.007856093347072601,0.04127778112888336,-0.05259587988257408
1733141833537313800,6.253313720703125,-0.009986559860408306,0.04340824484825134,-0.06431344151496887
1733141833547376000,6.263376220703125,-0.014247491955757141,0.04979964345693588,-0.07496577501296997
1733141833557453000,6.273453125,-0.01744319126009941,0.04234301298856735,-0.08561810106039047
1733141833567542500,6.28354248046875,-0.0185084231197834,0.028494983911514282,-0.08987903594970703
1733141833577642500,6.293642578125,-0.02170412242412567,0.022103585302829742,-0.08881380409002304
1733141833587745000,6.3037451171875,-0.02596505545079708,0.019973119720816612,-0.08348763734102249
1733141833597852700,6.313852783203125,-0.02489982172846794,0.016777420416474342,-0.0717700719833374
1733141833607962400,6.32396240234375,-0.0238345880061388,-0.00133154122158885,-0.05366111174225807
1733141833618055200,6.33405517578125,-0.0185084231197834,-0.023701434955000877,-0.03235645219683647
1733141833628097000,6.344096923828125,-0.013182258233428001,-0.04287562891840935,-0.012117025442421436
1733141833638138600,6.354138671875,-0.009986559860408306,-0.05352795869112015,0.0027962366584688425
1733141833648180500,6.364180419921875,-0.005725627299398184,-0.05459319427609444,0.005991935729980469
1733141833658222000,6.37422216796875,-0.0025299284607172012,-0.0482017956674099,0.000665770610794425
1733141833668263700,6.384263671875,-0.0003994623839389533,-0.04287562891840935,0.0017310036346316338
1733141833678305300,6.39430517578125,0.000665770610794425,-0.05033225938677788,0.0038614696823060513
1733141833688347100,6.40434716796875,0.0017310036346316338,-0.05246272683143616,0.0038614696823060513
1733141833698388700,6.414388671875,0.0027962366584688425,-0.05246272683143616,-0.0003994623839389533
1733141833708430600,6.4244306640625,-0.0003994623839389533,-0.0588541254401207,-0.013182258233428001
1733141833718448400,6.434448486328125,-0.007856093347072601,-0.07270215451717377,-0.02703028731048107
1733141833728468000,6.444468017578125,-0.014247491955757141,-0.08335448056459427,-0.03235645219683647
1733141833738490600,6.45449072265625,-0.02170412242412567,-0.09187635034322739,-0.03448691964149475
1733141833748516600,6.4645166015625,-0.02809552103281021,-0.10039821267127991,-0.03661738336086273
1733141833758546200,6.474546142578125,-0.03342168778181076,-0.10678961127996445,-0.03768261894583702
1733141833768561000,6.484560791015625,-0.03768261894583702,-0.112115778028965,-0.03448691964149475
1733141833778581200,6.494581298828125,-0.03768261894583702,-0.11318100988864899,-0.02596505545079708
1733141833788608300,6.504608154296875,-0.039813082665205,-0.11424624174833298,-0.0185084231197834
1733141833798642000,6.514641845703125,-0.04300878196954727,-0.10998530685901642,-0.015312724746763706
1733141833808682500,6.5246826171875,-0.04620448127388954,-0.09613727778196335,-0.012117025442421436
1733141833818729700,6.534729736328125,-0.04513924941420555,-0.06737598776817322,-0.00359516148455441
1733141833828783000,6.544783203125,-0.04194355010986328,-0.0375494658946991,0.0038614696823060513
1733141833838842000,6.554842041015625,-0.03768261894583702,-0.014114337973296642,0.009187635034322739
1733141833848905500,6.564905517578125,-0.03555215150117874,0.002929390873759985,0.015579032711684704
1733141833858972200,6.57497216796875,-0.03661738336086273,0.0050598569214344025,0.02303566411137581
1733141833869041400,6.58504150390625,-0.03768261894583702,-0.0034620072692632675,0.03049229457974434
1733141833879111700,6.595111572265625,-0.03448691964149475,-0.009853405877947807,0.03901416063308716
1733141833889181000,6.605180908203125,-0.02916075475513935,-0.009853405877947807,0.04220985993742943
1733141833899223000,6.61522314453125,-0.02170412242412567,-0.0023967742454260588,0.04007939249277115
1733141833909265000,6.625264892578125,-0.0185084231197834,0.009320789016783237,0.03368799388408661
1733141833919306200,6.63530615234375,-0.02596505545079708,0.023168819025158882,0.02516612969338894
1733141833929347600,6.64534765625,-0.03874785080552101,0.04234301298856735,0.012383334338665009
1733141833939270400,6.6552705078125,-0.05153064802289009,0.06151720881462097,0.0038614696823060513
1733141833949203000,6.665202880859375,-0.06218297779560089,0.06684337556362152,-0.0014646954368799925
1733141833959148800,6.675148681640625,-0.07070484012365341,0.0583215095102787,-0.0003994623839389533
1733141833969107000,6.68510693359375,-0.0717700719833374,0.04553871229290962,0.0027962366584688425
1733141833979084500,6.69508447265625,-0.06963960826396942,0.03808208182454109,0.005991935729980469
1733141833989083400,6.70508349609375,-0.06537867337465286,0.03595161437988281,0.0038614696823060513
1733141833999104800,6.715104736328125,-0.06431344151496887,0.04127778112888336,-0.0014646954368799925
1733141834009148200,6.725148193359375,-0.06644391268491745,0.05299534276127815,-0.009986559860408306
1733141834019213000,6.735213134765625,-0.06857437640428543,0.05938674136996269,-0.01957365684211254
1733141834029297200,6.745297119140625,-0.06963960826396942,0.05938674136996269,-0.02276935614645481
1733141834039398400,6.7553984375,-0.06750914454460144,0.05725627392530441,-0.02596505545079708
1733141834049513500,6.765513427734375,-0.06644391268491745,0.05406057462096214,-0.02916075475513935
1733141834059639000,6.77563916015625,-0.06431344151496887,0.04979964345693588,-0.03448691964149475
1733141834069766400,6.785766357421875,-0.06005251035094261,0.04873441159725189,-0.039813082665205
1733141834079897000,6.79589697265625,-0.05153064802289009,0.05299534276127815,-0.04407401755452156
1733141834090015000,6.806014892578125,-0.04726971685886383,0.06045197322964668,-0.04194355010986328
1733141834100056600,6.816056640625,-0.04833494871854782,0.05512581020593643,-0.03448691964149475
1733141834110098400,6.826098388671875,-0.04940018057823181,0.03595161437988281,-0.02063889056444168
1733141834120140000,6.83614013671875,-0.05472634732723236,0.014646953903138638,-0.011051792651414871
1733141834130181600,6.846181640625,-0.06005251035094261,-0.0023967742454260588,-0.0003994623839389533
1733141834140223500,6.856223388671875,-0.06750914454460144,-0.015179570764303207,0.008122402243316174
1733141834150265000,6.86626513671875,-0.06857437640428543,-0.022636201232671738,0.013448567129671574
1733141834160307000,6.876306884765625,-0.06005251035094261,-0.006657706573605537,0.01770949922502041
1733141834170229200,6.886229248046875,-0.04726971685886383,0.017842652276158333,0.015579032711684704
1733141834180161300,6.896161376953125,-0.03448691964149475,0.019973119720816612,0.007057168986648321
1733141834190106600,6.906106689453125,-0.02703028731048107,0.018907885998487473,-0.00359516148455441
1733141834200068900,6.91606884765625,-0.02276935614645481,0.016777420416474342,-0.011051792651414871
1733141834210050300,6.92605029296875,-0.02276935614645481,0.011451254598796368,-0.012117025442421436
1733141834220052700,6.936052734375,-0.02170412242412567,0.016777420416474342,-0.02063889056444168
1733141834230077000,6.946076904296875,-0.0185084231197834,0.022103585302829742,-0.03129122033715248
1733141834240123000,6.956122802734375,-0.013182258233428001,0.027429750189185143,-0.03874785080552101
1733141834250189000,6.96618896484375,-0.009986559860408306,0.027429750189185143,-0.04194355010986328
1733141834260274200,6.976274169921875,-0.008921326138079166,0.021038351580500603,-0.039813082665205
1733141834270375400,6.98637548828125,-0.006790860556066036,0.017842652276158333,-0.03661738336086273
1733141834280490000,6.996489990234375,-0.0025299284607172012,0.019973119720816612,-0.039813082665205
1733141834290614300,7.0066142578125,0.0027962366584688425,0.021038351580500603,-0.04620448127388954
1733141834300744700,7.01674462890625,0.009187635034322739,0.024234050884842873,-0.0504654161632061
1733141834310877200,7.026877197265625,0.011318100616335869,0.022103585302829742,-0.04833494871854782
1733141834320973800,7.036973876953125,0.012383334338665009,0.015712186694145203,-0.03235645219683647
1733141834331015700,7.047015625,0.011318100616335869,0.002929390873759985,-0.013182258233428001
1733141834341057500,7.0570576171875,0.011318100616335869,-0.011983871459960938,0.004926702938973904
1733141834351099400,7.067099365234375,0.011318100616335869,-0.023701434955000877,0.01664426550269127
1733141834361140700,7.077140625,0.010252867825329304,-0.03328853100538254,0.02090519852936268
1733141834371063300,7.087063232421875,0.005991935729980469,-0.04287562891840935,0.01877473294734955
1733141834380995300,7.096995361328125,0.0038614696823060513,-0.04394086077809334,0.013448567129671574
1733141834390941000,7.10694091796875,0.0017310036346316338,-0.04181039705872536,0.0038614696823060513
1733141834400903400,7.1169033203125,-0.0014646954368799925,-0.03435376659035683,0.000665770610794425
1733141834410885400,7.126885498046875,-0.005725627299398184,-0.024766668677330017,0.0027962366584688425
1733141834420888000,7.13688818359375,-0.007856093347072601,-0.015179570764303207,0.010252867825329304
1733141834430912500,7.14691259765625,-0.005725627299398184,-0.006657706573605537,0.01664426550269127
1733141834440958500,7.15695849609375,-0.0014646954368799925,-0.0034620072692632675,0.01983996480703354
1733141834451024600,7.167024658203125,0.0017310036346316338,-0.008788172155618668,0.02090519852936268
1733141834461109800,7.17710986328125,0.005991935729980469,-0.010918638668954372,0.01983996480703354
1733141834471211000,7.1872109375,0.011318100616335869,-0.011983871459960938,0.02090519852936268
1733141834481325000,7.197324951171875,0.012383334338665009,-0.018375270068645477,0.02729659713804722
1733141834491444500,7.207444580078125,0.012383334338665009,-0.023701434955000877,0.03688369318842888
1733141834501570000,7.217570068359375,0.011318100616335869,-0.023701434955000877,0.04434032365679741
1733141834511645700,7.227645751953125,0.010252867825329304,-0.025831900537014008,0.0454055592417717
1733141834521724700,7.237724609375,0.004926702938973904,-0.026897134259343147,0.04007939249277115
1733141834531731000,7.24773095703125,-0.0003994623839389533,-0.021570969372987747,0.02942706272006035
1733141834541743000,7.2577431640625,-0.005725627299398184,-0.014114337973296642,0.01983996480703354
1733141834551758000,7.267758056640625,-0.011051792651414871,-0.0034620072692632675,0.01877473294734955
1733141834561780700,7.27778076171875,-0.011051792651414871,0.00719032296910882,0.02303566411137581
1733141834571812000,7.28781201171875,-0.008921326138079166,0.008255556225776672,0.02729659713804722
1733141834581852000,7.297851806640625,-0.006790860556066036,-0.00133154122158885,0.02729659713804722
1733141834591900200,7.307900146484375,-0.007856093347072601,-0.018375270068645477,0.02836182899773121
1733141834601951000,7.317950927734375,-0.015312724746763706,-0.030092833563685417,0.0347532257437706
1733141834612009500,7.328009521484375,-0.0185084231197834,-0.031158065423369408,0.04007939249277115
1733141834622069000,7.338069091796875,-0.015312724746763706,-0.018375270068645477,0.03901416063308716
1733141834632134400,7.348134521484375,-0.005725627299398184,-0.011983871459960938,0.02729659713804722
1733141834642204000,7.358203857421875,0.0017310036346316338,-0.013049104250967503,0.014513799920678139
1733141834652276500,7.3682763671875,0.0038614696823060513,-0.014114337973296642,0.005991935729980469
1733141834662350800,7.378350830078125,0.0027962366584688425,-0.025831900537014008,0.011318100616335869
1733141834672425500,7.388425537109375,-0.004660394508391619,-0.030092833563685417,0.02410089783370495
1733141834682476000,7.39847607421875,-0.008921326138079166,-0.022636201232671738,0.02942706272006035
1733141834692518100,7.40851806640625,-0.005725627299398184,-0.006657706573605537,0.02197043038904667
1733141834702559200,7.418559326171875,0.0017310036346316338,0.0061250897124409676,0.007057168986648321
1733141834712515300,7.428515380859375,0.0038614696823060513,0.0061250897124409676,-0.00359516148455441
1733141834722478000,7.43847802734375,0.004926702938973904,0.002929390873759985,-0.009986559860408306
1733141834732446000,7.448446044921875,0.0038614696823060513,0.00399462366476655,-0.013182258233428001
1733141834742426000,7.458426025390625,0.0027962366584688425,0.0061250897124409676,-0.0185084231197834
1733141834752416000,7.468416015625,0.0027962366584688425,0.0061250897124409676,-0.02063889056444168
1733141834762421800,7.478421875,0.000665770610794425,0.0061250897124409676,-0.01744319126009941
1733141834772439800,7.488439697265625,0.000665770610794425,0.0061250897124409676,-0.011051792651414871
1733141834782475300,7.498475341796875,-0.0025299284607172012,0.0050598569214344025,-0.00359516148455441
1733141834792522500,7.5085224609375,-0.0014646954368799925,0.002929390873759985,-0.0025299284607172012
1733141834802586400,7.51858642578125,-0.0014646954368799925,0.0018641578499227762,-0.0003994623839389533
1733141834812660000,7.528659912109375,-0.0014646954368799925,0.0018641578499227762,-0.0003994623839389533
1733141834822746600,7.53874658203125,0.0038614696823060513,0.002929390873759985,-0.006790860556066036
1733141834832839000,7.5488388671875,0.004926702938973904,0.0007989247678779066,-0.012117025442421436
1733141834842935000,7.55893505859375,0.0027962366584688425,-0.006657706573605537,-0.013182258233428001
1733141834853037300,7.569037353515625,0.000665770610794425,-0.009853405877947807,-0.012117025442421436
1733141834863143000,7.579142822265625,-0.0014646954368799925,-0.0077229393646121025,-0.005725627299398184
1733141834873147600,7.589147705078125,-0.0003994623839389533,-0.0034620072692632675,0.0027962366584688425
1733141834883158800,7.59915869140625,0.0017310036346316338,0.002929390873759985,0.009187635034322739
1733141834893177000,7.609177001953125,0.0038614696823060513,0.0018641578499227762,0.007057168986648321
1733141834903203000,7.619203125,0.0038614696823060513,-0.0023967742454260588,0.0027962366584688425
1733141834913237500,7.629237548828125,0.0017310036346316338,-0.010918638668954372,-0.005725627299398184
1733141834923280000,7.63927978515625,0.000665770610794425,-0.019440501928329468,-0.013182258233428001
1733141834933330000,7.649329833984375,0.000665770610794425,-0.019440501928329468,-0.01957365684211254
1733141834943387400,7.659387451171875,-0.0003994623839389533,-0.021570969372987747,-0.0238345880061388
1733141834953451000,7.669450927734375,-0.0014646954368799925,-0.019440501928329468,-0.0238345880061388
1733141834963514600,7.6795146484375,-0.00359516148455441,-0.015179570764303207,-0.01637795753777027
1733141834973582800,7.689582763671875,-0.004660394508391619,-0.014114337973296642,-0.005725627299398184
1733141834983654000,7.69965380859375,-0.0025299284607172012,-0.013049104250967503,0.0027962366584688425
1733141834993649000,7.70964892578125,0.0038614696823060513,-0.016244804486632347,0.0038614696823060513
1733141835003650300,7.719650390625,0.010252867825329304,-0.020505735650658607,-0.0003994623839389533
1733141835013659600,7.72965966796875,0.013448567129671574,-0.018375270068645477,-0.008921326138079166
1733141835023678000,7.739677978515625,0.011318100616335869,-0.006657706573605537,-0.01744319126009941
1733141835033706000,7.7497060546875,0.009187635034322739,0.0007989247678779066,-0.02916075475513935
1733141835043743500,7.759743408203125,0.011318100616335869,-0.00133154122158885,-0.04194355010986328
1733141835053790500,7.76979052734375,0.012383334338665009,0.002929390873759985,-0.04407401755452156
1733141835063841500,7.779841552734375,0.009187635034322739,-0.00133154122158885,-0.03448691964149475
1733141835073896000,7.78989599609375,0.008122402243316174,0.0018641578499227762,-0.0185084231197834
1733141835083958300,7.799958251953125,0.014513799920678139,0.015712186694145203,-0.015312724746763706
1733141835094027300,7.81002734375,0.02623136341571808,0.021038351580500603,-0.03022598661482334
1733141835104101000,7.82010107421875,0.03049229457974434,0.023168819025158882,-0.04194355010986328
1733141835114178800,7.8301787109375,0.02623136341571808,0.014646953903138638,-0.04407401755452156
1733141835124258800,7.8402587890625,0.01983996480703354,0.00399462366476655,-0.03555215150117874
1733141835134339000,7.850339111328125,0.01664426550269127,0.0061250897124409676,-0.02170412242412567
1733141835144272600,7.860272705078125,0.01770949922502041,0.014646953903138638,-0.014247491955757141
1733141835154215200,7.870215087890625,0.01877473294734955,0.014646953903138638,-0.011051792651414871
1733141835164165600,7.88016552734375,0.01664426550269127,0.009320789016783237,-0.008921326138079166
1733141835174127400,7.89012744140625,0.011318100616335869,0.00399462366476655,-0.009986559860408306
1733141835184104400,7.9001044921875,0.004926702938973904,0.002929390873759985,-0.008921326138079166
1733141835194097400,7.910097412109375,0.0017310036346316338,0.0018641578499227762,-0.006790860556066036
1733141835204108000,7.92010791015625,0.000665770610794425,0.0007989247678779066,-0.004660394508391619
1733141835214136300,7.93013623046875,0.000665770610794425,-0.0002663082559593022,-0.004660394508391619
1733141835224182300,7.940182373046875,0.0027962366584688425,0.0007989247678779066,-0.00359516148455441
1733141835234244900,7.950244873046875,0.0038614696823060513,0.00399462366476655,-0.0003994623839389533
1733141835244322800,7.96032275390625,0.0038614696823060513,0.008255556225776672,-0.0014646954368799925
1733141835254414000,7.9704140625,0.000665770610794425,0.011451254598796368,0.000665770610794425
1733141835264518400,7.980518310546875,-0.0003994623839389533,0.017842652276158333,0.0038614696823060513
1733141835274631700,7.990631591796875,0.0027962366584688425,0.027429750189185143,0.0027962366584688425
1733141835284749600,8.00074951171875,0.005991935729980469,0.028494983911514282,-0.0025299284607172012
1733141835294868700,8.01086865234375,0.004926702938973904,0.016777420416474342,-0.0025299284607172012
1733141835304939300,8.020939208984375,0.0027962366584688425,0.00399462366476655,-0.0025299284607172012
1733141835314981400,8.0309814453125,0.000665770610794425,0.00719032296910882,-0.00359516148455441
1733141835325023200,8.041023193359376,0.0017310036346316338,0.022103585302829742,-0.0025299284607172012
1733141835335065000,8.051065185546875,0.0017310036346316338,0.03595161437988281,-0.00359516148455441
1733141835345108700,8.061108642578125,0.000665770610794425,0.04127778112888336,-0.006790860556066036
1733141835355148300,8.071148193359376,0.000665770610794425,0.04127778112888336,-0.011051792651414871
1733141835365189000,8.081189208984375,0.0027962366584688425,0.04127778112888336,-0.012117025442421436
1733141835375234800,8.09123486328125,0.0017310036346316338,0.03914731368422508,-0.013182258233428001
1733141835385284900,8.101284912109374,-0.0003994623839389533,0.026364516466856003,-0.011051792651414871
1733141835395338800,8.1113388671875,-0.0014646954368799925,0.011451254598796368,-0.006790860556066036
1733141835405396500,8.121396484375,-0.0025299284607172012,0.0018641578499227762,-0.005725627299398184
1733141835415454200,8.1314541015625,-0.0014646954368799925,-0.00452724052593112,-0.005725627299398184
1733141835425452300,8.141452392578126,-0.0014646954368799925,-0.005592473316937685,-0.00359516148455441
1733141835435451600,8.15145166015625,0.000665770610794425,-0.0023967742454260588,-0.0025299284607172012
1733141835445453800,8.161453857421876,0.007057168986648321,0.0050598569214344025,-0.00359516148455441
1733141835455460400,8.17146044921875,0.013448567129671574,0.011451254598796368,-0.006790860556066036
1733141835465472500,8.181472412109375,0.01770949922502041,0.015712186694145203,-0.009986559860408306
1733141835475491000,8.191490966796875,0.01877473294734955,0.017842652276158333,-0.007856093347072601
1733141835485517000,8.20151708984375,0.02090519852936268,0.018907885998487473,0.0017310036346316338
1733141835495550500,8.211550537109375,0.02303566411137581,0.014646953903138638,0.0038614696823060513
1733141835505596200,8.22159619140625,0.02410089783370495,0.011451254598796368,-0.0014646954368799925
1733141835515648800,8.231648681640625,0.02090519852936268,0.011451254598796368,0.0027962366584688425
1733141835525712600,8.241712646484375,0.01664426550269127,0.0018641578499227762,0.0027962366584688425
1733141835535781000,8.251781005859375,0.013448567129671574,0.0061250897124409676,0.000665770610794425
1733141835545858000,8.261858154296876,0.01664426550269127,0.012516488321125507,-0.011051792651414871
1733141835555937000,8.27193701171875,0.01877473294734955,0.0050598569214344025,-0.03022598661482334
1733141835566021000,8.282021240234375,0.01770949922502041,0.0007989247678779066,-0.04087831825017929
1733141835576066300,8.29206640625,0.012383334338665009,-0.006657706573605537,-0.03768261894583702
1733141835586116000,8.3021162109375,0.009187635034322739,-0.0077229393646121025,-0.02489982172846794
1733141835596149500,8.3121494140625,0.004926702938973904,0.0007989247678779066,-0.014247491955757141
1733141835606183400,8.322183349609375,0.000665770610794425,0.0050598569214344025,-0.011051792651414871
1733141835616218000,8.332218017578125,0.0017310036346316338,0.002929390873759985,-0.015312724746763706
1733141835626258200,8.342258056640626,0.0038614696823060513,-0.00452724052593112,-0.01957365684211254
1733141835636299300,8.35229931640625,0.007057168986648321,-0.0077229393646121025,-0.01957365684211254
1733141835646345500,8.362345458984375,0.008122402243316174,-0.00452724052593112,-0.01744319126009941
1733141835656397000,8.37239697265625,0.004926702938973904,0.0007989247678779066,-0.014247491955757141
1733141835666452700,8.38245263671875,0.000665770610794425,0.0061250897124409676,-0.013182258233428001
1733141835676483300,8.3924833984375,-0.00359516148455441,0.00399462366476655,-0.008921326138079166
1733141835686519000,8.40251904296875,-0.005725627299398184,-0.0034620072692632675,-0.0003994623839389533
1733141835696559900,8.412559814453125,-0.005725627299398184,-0.011983871459960938,0.010252867825329304
1733141835706601000,8.42260107421875,-0.005725627299398184,-0.015179570764303207,0.01983996480703354
1733141835716647200,8.432647216796875,-0.005725627299398184,-0.011983871459960938,0.02197043038904667
1733141835726698200,8.4426982421875,-0.005725627299398184,-0.00452724052593112,0.02090519852936268
1733141835736753200,8.452753173828125,-0.004660394508391619,0.00719032296910882,0.015579032711684704
1733141835746811600,8.462811767578126,-0.0025299284607172012,0.018907885998487473,0.008122402243316174
1733141835756872700,8.472872802734376,-0.0014646954368799925,0.022103585302829742,0.004926702938973904
1733141835766935600,8.482935546875,-0.00359516148455441,0.0061250897124409676,0.005991935729980469
1733141835776899800,8.49289990234375,-0.007856093347072601,-0.0077229393646121025,0.01664426550269127
1733141835786871800,8.502871826171875,-0.009986559860408306,-0.009853405877947807,0.02623136341571808
1733141835796854300,8.512854248046875,-0.012117025442421436,-0.006657706573605537,0.03262276202440262
1733141835806849000,8.52284912109375,-0.015312724746763706,-0.0023967742454260588,0.03688369318842888
1733141835816857600,8.532857666015625,-0.01637795753777027,0.002929390873759985,0.0347532257437706
1733141835826880500,8.542880615234376,-0.0185084231197834,0.002929390873759985,0.03049229457974434
1733141835836918000,8.55291796875,-0.02063889056444168,0.0007989247678779066,0.02836182899773121
1733141835846965000,8.562965087890625,-0.02489982172846794,-0.005592473316937685,0.03155753016471863
1733141835857025500,8.573025634765624,-0.02703028731048107,-0.009853405877947807,0.03901416063308716
1733141835867098400,8.583098388671875,-0.02916075475513935,-0.011983871459960938,0.04753602296113968
1733141835877177000,8.593177001953125,-0.02703028731048107,-0.014114337973296642,0.05286218971014023
1733141835887264800,8.6032646484375,-0.02596505545079708,-0.018375270068645477,0.05073172226548195
1733141835897358800,8.61335888671875,-0.0238345880061388,-0.018375270068645477,0.04327509179711342
1733141835907441400,8.62344140625,-0.02276935614645481,-0.011983871459960938,0.02942706272006035
1733141835917527000,8.633527099609376,-0.02170412242412567,-0.0034620072692632675,0.01664426550269127
1733141835927614000,8.643614013671876,-0.02276935614645481,0.002929390873759985,0.013448567129671574
1733141835937687000,8.65368701171875,-0.0238345880061388,0.009320789016783237,0.01770949922502041
1733141835947731200,8.663731201171874,-0.0238345880061388,0.015712186694145203,0.02516612969338894
1733141835957770500,8.6737705078125,-0.015312724746763706,0.015712186694145203,0.02410089783370495
1733141835967810000,8.68381005859375,-0.006790860556066036,0.019973119720816612,0.02197043038904667
1733141835977849600,8.693849609375,-0.0014646954368799925,0.024234050884842873,0.02729659713804722
1733141835987889700,8.7038896484375,0.0027962366584688425,0.013581721112132072,0.03262276202440262
1733141835997929700,8.7139296875,0.0027962366584688425,0.012516488321125507,0.03368799388408661
1733141836007858700,8.723858642578126,-0.0003994623839389533,0.00719032296910882,0.02090519852936268
1733141836017796900,8.733796875,-0.004660394508391619,0.0018641578499227762,-0.0025299284607172012
1733141836027748000,8.743748046875,-0.011051792651414871,0.0018641578499227762,-0.015312724746763706
1733141836037715500,8.753715576171874,-0.014247491955757141,-0.0034620072692632675,-0.014247491955757141
1733141836047701200,8.763701171875,-0.015312724746763706,-0.010918638668954372,-0.0003994623839389533
1733141836057707300,8.773707275390626,-0.015312724746763706,-0.017310036346316338,0.014513799920678139
1733141836067733800,8.783733642578126,-0.013182258233428001,-0.014114337973296642,0.015579032711684704
1733141836077780700,8.79378076171875,-0.008921326138079166,-0.005592473316937685,0.007057168986648321
1733141836087847200,8.80384716796875,-0.007856093347072601,-0.0023967742454260588,-0.0014646954368799925
1733141836097931000,8.813930908203124,-0.007856093347072601,-0.009853405877947807,-0.00359516148455441
1733141836108025300,8.824025390625,-0.006790860556066036,-0.016244804486632347,-0.0003994623839389533
1733141836118132500,8.834132568359376,-0.008921326138079166,-0.022636201232671738,0.005991935729980469
1733141836128249000,8.8442490234375,-0.011051792651414871,-0.020505735650658607,0.011318100616335869
1733141836138371800,8.854371826171874,-0.013182258233428001,-0.015179570764303207,0.013448567129671574
1733141836148497400,8.864497314453125,-0.015312724746763706,-0.008788172155618668,0.012383334338665009
1733141836158603800,8.874603759765625,-0.013182258233428001,-0.005592473316937685,0.010252867825329304
1733141836168645600,8.884645751953125,-0.011051792651414871,-0.00133154122158885,0.007057168986648321
1733141836178687200,8.894687255859376,-0.008921326138079166,-0.0002663082559593022,0.0038614696823060513
1733141836188729000,8.90472900390625,-0.008921326138079166,-0.005592473316937685,0.004926702938973904
1733141836198770700,8.914770751953125,-0.011051792651414871,-0.0023967742454260588,0.0017310036346316338
1733141836208691700,8.924691650390624,-0.014247491955757141,0.0007989247678779066,-0.004660394508391619
1733141836218622500,8.93462255859375,-0.02170412242412567,-0.0023967742454260588,-0.007856093347072601
1733141836228567000,8.944567138671875,-0.02916075475513935,-0.0002663082559593022,-0.0025299284607172012
1733141836238528500,8.954528564453126,-0.03022598661482334,-0.0034620072692632675,-0.0003994623839389533
1733141836248504800,8.9645048828125,-0.02596505545079708,0.0018641578499227762,0.0017310036346316338
1733141836258502700,8.974502685546875,-0.02170412242412567,0.0061250897124409676,0.0027962366584688425
1733141836268523000,8.98452294921875,-0.02063889056444168,-0.0002663082559593022,0.005991935729980469
1733141836278561000,8.99456103515625,-0.01957365684211254,0.009320789016783237,0.0017310036346316338
1733141836288616000,9.004615966796875,-0.014247491955757141,0.018907885998487473,-0.006790860556066036
1733141836298691800,9.01469189453125,-0.008921326138079166,0.017842652276158333,-0.011051792651414871
1733141836308786000,9.024785888671875,-0.007856093347072601,0.0061250897124409676,-0.006790860556066036
1733141836318895600,9.0348955078125,-0.008921326138079166,-0.0034620072692632675,-0.0025299284607172012
1733141836329017900,9.045017822265624,-0.006790860556066036,-0.00452724052593112,-0.0025299284607172012
1733141836339148300,9.055148193359376,-0.0014646954368799925,0.00399462366476655,-0.012117025442421436
1733141836349283600,9.06528369140625,0.0027962366584688425,0.012516488321125507,-0.02489982172846794
1733141836359419600,9.075419677734375,0.0027962366584688425,0.016777420416474342,-0.03129122033715248
1733141836369479400,9.0854794921875,0.0038614696823060513,0.013581721112132072,-0.03235645219683647
1733141836379402000,9.095402099609375,0.005991935729980469,0.0061250897124409676,-0.03022598661482334
1733141836389329200,9.1053291015625,0.004926702938973904,0.0018641578499227762,-0.02063889056444168
1733141836399270100,9.115270263671874,0.004926702938973904,0.00399462366476655,-0.006790860556066036
1733141836409228500,9.125228515625,0.005991935729980469,0.008255556225776672,-0.004660394508391619
1733141836419207200,9.135207275390625,0.011318100616335869,0.010386021807789803,-0.015312724746763706
1733141836429207300,9.145207275390625,0.012383334338665009,0.019973119720816612,-0.02276935614645481
1733141836439230200,9.155230224609374,0.012383334338665009,0.019973119720816612,-0.0238345880061388
1733141836449275100,9.165275146484374,0.010252867825329304,0.011451254598796368,-0.02170412242412567
1733141836459341800,9.175341796875,0.007057168986648321,0.024234050884842873,-0.02596505545079708
1733141836469428000,9.185427978515625,0.008122402243316174,0.03382114693522453,-0.03874785080552101
1733141836479531000,9.195531005859374,0.004926702938973904,0.028494983911514282,-0.05579157918691635
1733141836489647900,9.20564794921875,0.0027962366584688425,0.012516488321125507,-0.05898727849125862
1733141836499775000,9.21577490234375,-0.0014646954368799925,-0.006657706573605537,-0.04620448127388954
1733141836509908700,9.22590869140625,-0.0025299284607172012,-0.009853405877947807,-0.02809552103281021
1733141836520044800,9.236044921875,-0.0014646954368799925,0.00719032296910882,-0.02063889056444168
1733141836530146300,9.246146240234374,-0.0014646954368799925,0.029560215771198273,-0.02703028731048107
1733141836540188200,9.256188232421875,-0.00359516148455441,0.04447348043322563,-0.03768261894583702
1733141836550108700,9.266108642578125,-0.00359516148455441,0.0476691760122776,-0.039813082665205
1733141836560039000,9.276038818359375,-0.0014646954368799925,0.04340824484825134,-0.03768261894583702
1733141836569983000,9.28598291015625,0.000665770610794425,0.029560215771198273,-0.03022598661482334
1733141836579944200,9.295944091796875,-0.0003994623839389533,0.018907885998487473,-0.02170412242412567
1733141836589924900,9.3059248046875,-0.0003994623839389533,0.014646953903138638,-0.0185084231197834
1733141836599927000,9.315927001953124,0.0017310036346316338,0.022103585302829742,-0.02170412242412567
1733141836609951200,9.325951171875,0.007057168986648321,0.03808208182454109,-0.0238345880061388
1733141836619997200,9.3359970703125,0.012383334338665009,0.05086487531661987,-0.02703028731048107
1733141836630059000,9.34605908203125,0.01664426550269127,0.05725627392530441,-0.03022598661482334
1733141836640140300,9.356140380859374,0.02090519852936268,0.05193011090159416,-0.03022598661482334
1733141836650238500,9.366238525390624,0.02516612969338894,0.04873441159725189,-0.02489982172846794
1733141836660350700,9.376350830078126,0.02942706272006035,0.04660394415259361,-0.02276935614645481
1733141836670473700,9.3864736328125,0.02942706272006035,0.03914731368422508,-0.02170412242412567
1733141836680604000,9.39660400390625,0.02729659713804722,0.026364516466856003,-0.02170412242412567
1733141836690737200,9.406737060546876,0.02516612969338894,0.013581721112132072,-0.0185084231197834
1733141836700855300,9.416855224609375,0.02090519852936268,0.0050598569214344025,-0.015312724746763706
1733141836710897000,9.42689697265625,0.01664426550269127,0.002929390873759985,-0.007856093347072601
1733141836720938500,9.4369384765625,0.015579032711684704,0.002929390873759985,-0.0025299284607172012
1733141836730861800,9.44686181640625,0.01877473294734955,0.008255556225776672,-0.0025299284607172012
1733141836740794400,9.45679443359375,0.01983996480703354,0.013581721112132072,-0.004660394508391619
1733141836750740500,9.466740478515625,0.02303566411137581,0.013581721112132072,-0.00359516148455441
1733141836760698400,9.476698486328125,0.02303566411137581,0.00719032296910882,-0.0014646954368799925
1733141836770676200,9.48667626953125,0.02197043038904667,0.0018641578499227762,0.0017310036346316338
1733141836780675000,9.496675048828125,0.02197043038904667,0.0018641578499227762,0.0038614696823060513
1733141836790696400,9.506696533203124,0.02090519852936268,0.0018641578499227762,0.004926702938973904
1733141836800739800,9.51673974609375,0.01877473294734955,0.0007989247678779066,0.007057168986648321
1733141836810804500,9.526804443359374,0.015579032711684704,0.0007989247678779066,0.009187635034322739
1733141836820888600,9.536888671875,0.013448567129671574,-0.0002663082559593022,0.011318100616335869
1733141836830989800,9.54698974609375,0.012383334338665009,-0.00133154122158885,0.010252867825329304
1733141836841104600,9.557104736328125,0.011318100616335869,0.0007989247678779066,0.008122402243316174
1733141836851230000,9.56722998046875,0.008122402243316174,0.0018641578499227762,0.0027962366584688425
1733141836861357300,9.577357421875,0.005991935729980469,0.0061250897124409676,0.0038614696823060513
1733141836871487700,9.58748779296875,0.0038614696823060513,0.012516488321125507,0.009187635034322739
1733141836881605600,9.597605712890624,0.0038614696823060513,0.00719032296910882,0.009187635034322739
1733141836891647500,9.6076474609375,0.007057168986648321,0.0061250897124409676,0.008122402243316174
1733141836901568800,9.61756884765625,0.009187635034322739,0.002929390873759985,0.013448567129671574
1733141836911497500,9.62749755859375,0.008122402243316174,-0.016244804486632347,0.015579032711684704
1733141836921440000,9.63743994140625,0.0027962366584688425,-0.019440501928329468,0.014513799920678139
1733141836931400000,9.64739990234375,0.0017310036346316338,0.0018641578499227762,0.008122402243316174
1733141836941379800,9.6573798828125,0.0017310036346316338,0.017842652276158333,-0.007856093347072601
1733141836951376100,9.667376220703124,0.0027962366584688425,0.022103585302829742,-0.0185084231197834
1733141836961395200,9.677395263671874,0.007057168986648321,0.008255556225776672,-0.01744319126009941
1733141836971437000,9.68743701171875,0.010252867825329304,-0.014114337973296642,-0.004660394508391619
1733141836981500700,9.697500732421876,0.012383334338665009,-0.022636201232671738,0.0038614696823060513
1733141836991584000,9.707583984375,0.013448567129671574,-0.017310036346316338,0.0017310036346316338
1733141837001685000,9.71768505859375,0.012383334338665009,-0.005592473316937685,-0.004660394508391619
1733141837011800600,9.727800537109376,0.008122402243316174,0.0018641578499227762,-0.007856093347072601
1733141837021927200,9.73792724609375,0.004926702938973904,0.0018641578499227762,-0.006790860556066036
1733141837032060700,9.748060791015625,0.0038614696823060513,-0.0002663082559593022,-0.0025299284607172012
1733141837042153700,9.75815380859375,0.004926702938973904,-0.0002663082559593022,-0.0025299284607172012
1733141837052249600,9.76824951171875,0.008122402243316174,0.0007989247678779066,-0.004660394508391619
1733141837062345700,9.778345703125,0.010252867825329304,0.0050598569214344025,-0.009986559860408306
1733141837072398300,9.7883984375,0.010252867825329304,0.010386021807789803,-0.012117025442421436
1733141837082439400,9.798439453125,0.010252867825329304,0.009320789016783237,-0.012117025442421436
1733141837092361700,9.80836181640625,0.008122402243316174,-0.0002663082559593022,-0.006790860556066036
1733141837102293800,9.818293701171875,0.005991935729980469,-0.0077229393646121025,-0.0025299284607172012
1733141837112237000,9.828237060546876,0.0038614696823060513,-0.014114337973296642,-0.0014646954368799925
1733141837122197500,9.838197509765624,0.0017310036346316338,-0.008788172155618668,-0.0025299284607172012
1733141837132172500,9.848172607421875,-0.0025299284607172012,-0.00452724052593112,-0.008921326138079166
1733141837142169300,9.85816943359375,-0.005725627299398184,-0.006657706573605537,-0.014247491955757141
1733141837152184000,9.86818408203125,-0.008921326138079166,-0.0077229393646121025,-0.01637795753777027
1733141837162221600,9.8782216796875,-0.009986559860408306,-0.005592473316937685,-0.01744319126009941
1733141837172276500,9.8882763671875,-0.008921326138079166,-0.00133154122158885,-0.01744319126009941
1733141837182347500,9.898347412109375,-0.008921326138079166,-0.0002663082559593022,-0.0185084231197834
1733141837192433200,9.90843310546875,-0.008921326138079166,0.0007989247678779066,-0.02063889056444168
1733141837202535400,9.918535400390626,-0.008921326138079166,0.0050598569214344025,-0.02063889056444168
1733141837212647000,9.92864697265625,-0.008921326138079166,0.009320789016783237,-0.02489982172846794
1733141837222769000,9.938768798828125,-0.011051792651414871,0.013581721112132072,-0.02703028731048107
1733141837232893000,9.948892822265625,-0.015312724746763706,0.015712186694145203,-0.02489982172846794
1733141837243020500,9.9590205078125,-0.01957365684211254,0.013581721112132072,-0.02063889056444168
1733141837253147400,9.9691474609375,-0.01957365684211254,0.008255556225776672,-0.015312724746763706
1733141837263190000,9.97918994140625,-0.01744319126009941,0.009320789016783237,-0.015312724746763706
1733141837273231000,9.989231201171876,-0.01637795753777027,0.009320789016783237,-0.01637795753777027
1733141837283272200,9.999272216796875,-0.014247491955757141,0.011451254598796368,-0.01957365684211254
1733141837293313500,10.0093134765625,-0.013182258233428001,0.016777420416474342,-0.0185084231197834
1733141837303354600,10.019354736328125,-0.013182258233428001,0.021038351580500603,-0.01744319126009941
1733141837313396000,10.02939599609375,-0.012117025442421436,0.016777420416474342,-0.013182258233428001
1733141837323437300,10.039437255859376,-0.012117025442421436,0.011451254598796368,-0.006790860556066036
1733141837333362700,10.04936279296875,-0.008921326138079166,0.0061250897124409676,0.000665770610794425
1733141837343297500,10.059297607421875,-0.008921326138079166,0.002929390873759985,0.007057168986648321
1733141837353245700,10.06924560546875,-0.009986559860408306,0.00399462366476655,0.01983996480703354
1733141837363210200,10.079210205078125,-0.009986559860408306,0.008255556225776672,0.02836182899773121
1733141837373193700,10.08919384765625,-0.005725627299398184,0.0007989247678779066,0.02090519852936268
1733141837383197700,10.09919775390625,-0.00359516148455441,0.0050598569214344025,0.02197043038904667
1733141837393223200,10.10922314453125,-0.0025299284607172012,-0.006657706573605537,0.02516612969338894
1733141837403269400,10.119269287109375,-0.0003994623839389533,-0.016244804486632347,0.02623136341571808
1733141837413335800,10.129335693359375,-0.0025299284607172012,-0.00452724052593112,0.02516612969338894
1733141837423420400,10.13942041015625,-0.004660394508391619,0.00719032296910882,0.015579032711684704
1733141837433520600,10.149520751953125,-0.008921326138079166,0.012516488321125507,0.000665770610794425
1733141837443633700,10.159633544921874,-0.013182258233428001,0.00399462366476655,-0.0014646954368799925
1733141837453756000,10.169755859375,-0.012117025442421436,-0.0034620072692632675,0.008122402243316174
1733141837463879400,10.17987939453125,-0.007856093347072601,-0.00133154122158885,0.01877473294734955
1733141837474005200,10.190005126953125,-0.00359516148455441,-0.0002663082559593022,0.01877473294734955
1733141837484107500,10.200107421875,-0.004660394508391619,0.0050598569214344025,0.013448567129671574
1733141837494148900,10.21014892578125,-0.008921326138079166,0.009320789016783237,0.008122402243316174
1733141837504190200,10.220190185546874,-0.011051792651414871,0.009320789016783237,0.005991935729980469
1733141837514208500,10.23020849609375,-0.013182258233428001,0.008255556225776672,0.010252867825329304
1733141837524228400,10.240228271484375,-0.009986559860408306,0.009320789016783237,0.013448567129671574
1733141837534251000,10.2502509765625,-0.004660394508391619,0.009320789016783237,0.014513799920678139
1733141837544277200,10.26027734375,-0.0014646954368799925,0.011451254598796368,0.01664426550269127
1733141837554307000,10.27030712890625,-0.0014646954368799925,0.015712186694145203,0.01877473294734955
1733141837564341200,10.28034130859375,-0.0003994623839389533,0.015712186694145203,0.02410089783370495
1733141837574379000,10.29037890625,0.0027962366584688425,0.015712186694145203,0.03049229457974434
1733141837584419000,10.300419189453125,0.005991935729980469,0.012516488321125507,0.03581846132874489
1733141837594459400,10.31045947265625,0.008122402243316174,0.0061250897124409676,0.03688369318842888
1733141837604487700,10.32048779296875,0.005991935729980469,0.00399462366476655,0.03368799388408661
1733141837614516500,10.3305166015625,0.004926702938973904,0.010386021807789803,0.02623136341571808
1733141837624546000,10.340546142578125,0.0038614696823060513,0.015712186694145203,0.014513799920678139
1733141837634577400,10.350577392578124,0.0017310036346316338,0.015712186694145203,0.0027962366584688425
1733141837644610300,10.3606103515625,0.0027962366584688425,0.011451254598796368,-0.00359516148455441
1733141837654650400,10.370650390625,0.000665770610794425,0.009320789016783237,-0.004660394508391619
1733141837664692200,10.380692138671876,-0.0003994623839389533,0.013581721112132072,-0.0025299284607172012
1733141837674739200,10.3907392578125,-0.0014646954368799925,0.019973119720816612,-0.0014646954368799925
1733141837684788000,10.4007880859375,-0.0014646954368799925,0.023168819025158882,0.0027962366584688425
1733141837694837800,10.410837646484374,-0.0014646954368799925,0.018907885998487473,0.008122402243316174
1733141837704888300,10.420888427734376,0.0017310036346316338,0.011451254598796368,0.011318100616335869
1733141837714939100,10.430939208984375,0.0027962366584688425,0.0007989247678779066,0.011318100616335869
1733141837724988000,10.44098779296875,0.0017310036346316338,-0.0077229393646121025,0.012383334338665009
1733141837735040500,10.45104052734375,0.000665770610794425,-0.011983871459960938,0.011318100616335869
1733141837745095700,10.461095703125,-0.00359516148455441,-0.010918638668954372,0.009187635034322739
1733141837755137500,10.471137451171876,-0.007856093347072601,-0.008788172155618668,0.010252867825329304
1733141837765154600,10.481154541015625,-0.009986559860408306,-0.0077229393646121025,0.012383334338665009
1733141837775172600,10.491172607421875,-0.008921326138079166,-0.005592473316937685,0.015579032711684704
1733141837785197300,10.501197265625,-0.004660394508391619,-0.00452724052593112,0.01664426550269127
1733141837795224000,10.51122412109375,-0.0014646954368799925,-0.005592473316937685,0.02197043038904667
1733141837805258500,10.521258544921874,-0.0003994623839389533,-0.006657706573605537,0.02729659713804722
1733141837815299000,10.531299072265625,-0.0003994623839389533,-0.0077229393646121025,0.03155753016471863
1733141837825343200,10.54134326171875,0.0017310036346316338,-0.005592473316937685,0.03262276202440262
1733141837835389700,10.5513896484375,0.0027962366584688425,-0.00133154122158885,0.03155753016471863
1733141837845438200,10.561438232421875,0.0027962366584688425,0.00399462366476655,0.02942706272006035
1733141837855488500,10.571488525390626,0.000665770610794425,0.009320789016783237,0.03049229457974434
1733141837865540000,10.5815400390625,-0.0003994623839389533,0.017842652276158333,0.0347532257437706
1733141837875592400,10.591592529296875,0.0017310036346316338,0.017842652276158333,0.03368799388408661
1733141837885645000,10.60164501953125,0.007057168986648321,0.010386021807789803,0.02623136341571808
1733141837895697700,10.61169775390625,0.005991935729980469,0.008255556225776672,0.02942706272006035
1733141837905754600,10.621754638671876,0.0038614696823060513,-0.0023967742454260588,0.04007939249277115
1733141837915779300,10.631779296875,0.0027962366584688425,0.00399462366476655,0.0454055592417717
1733141837925809700,10.6418095703125,0.0027962366584688425,0.017842652276158333,0.0347532257437706
1733141837935840800,10.6518408203125,0.0017310036346316338,0.023168819025158882,0.009187635034322739
1733141837945878000,10.6618779296875,-0.0025299284607172012,0.022103585302829742,-0.009986559860408306
1733141837955916500,10.67191650390625,-0.00359516148455441,0.009320789016783237,-0.012117025442421436
1733141837965961200,10.681961181640625,-0.00359516148455441,-0.00133154122158885,-0.00359516148455441
1733141837976006700,10.692006591796876,-0.0003994623839389533,0.0018641578499227762,0.0017310036346316338
1733141837986057700,10.7020576171875,-0.0003994623839389533,0.011451254598796368,0.000665770610794425
1733141837996108800,10.71210888671875,-0.0014646954368799925,0.016777420416474342,-0.00359516148455441
1733141838006156800,10.72215673828125,-0.00359516148455441,0.016777420416474342,-0.005725627299398184
1733141838016196600,10.732196533203124,-0.006790860556066036,0.013581721112132072,-0.00359516148455441
1733141838026236700,10.742236572265625,-0.006790860556066036,0.015712186694145203,-0.0003994623839389533
1733141838036276700,10.75227685546875,-0.004660394508391619,0.018907885998487473,0.0017310036346316338
1733141838046317000,10.762317138671875,-0.004660394508391619,0.019973119720816612,0.004926702938973904
1733141838056357600,10.772357666015624,-0.006790860556066036,0.014646953903138638,0.010252867825329304
1733141838066403000,10.782403076171875,-0.006790860556066036,0.010386021807789803,0.015579032711684704
1733141838076453400,10.792453369140626,-0.006790860556066036,0.00399462366476655,0.01770949922502041
1733141838086507800,10.8025078125,-0.006790860556066036,0.0018641578499227762,0.015579032711684704
1733141838096531500,10.812531494140625,-0.006790860556066036,0.0061250897124409676,0.010252867825329304
1733141838106560500,10.822560546875,-0.006790860556066036,0.017842652276158333,0.004926702938973904
1733141838116595500,10.832595458984375,-0.006790860556066036,0.029560215771198273,-0.0025299284607172012
1733141838126631400,10.84263134765625,-0.007856093347072601,0.03488638252019882,-0.008921326138079166
1733141838136673300,10.85267333984375,-0.009986559860408306,0.029560215771198273,-0.012117025442421436
1733141838146720800,10.862720703125,-0.008921326138079166,0.017842652276158333,-0.013182258233428001
1733141838156773600,10.872773681640625,-0.006790860556066036,0.013581721112132072,-0.009986559860408306
1733141838166831000,10.8828310546875,-0.004660394508391619,0.016777420416474342,-0.005725627299398184
1733141838176892400,10.892892333984374,-0.0025299284607172012,0.018907885998487473,-0.005725627299398184
1733141838186956500,10.90295654296875,-0.0014646954368799925,0.021038351580500603,-0.009986559860408306
1733141838196946700,10.91294677734375,-0.0003994623839389533,0.025299284607172012,-0.01744319126009941
1733141838206943700,10.92294384765625,0.000665770610794425,0.025299284607172012,-0.02596505545079708
1733141838216949000,10.932948974609374,0.0017310036346316338,0.018907885998487473,-0.03129122033715248
1733141838226964000,10.9429638671875,0.0017310036346316338,0.011451254598796368,-0.03022598661482334
1733141838236989200,10.9529892578125,0.0038614696823060513,0.00719032296910882,-0.02703028731048107
1733141838247019800,10.963019775390626,0.005991935729980469,0.00399462366476655,-0.0185084231197834
1733141838257061000,10.97306103515625,0.009187635034322739,0.002929390873759985,-0.012117025442421436
1733141838267112700,10.98311279296875,0.013448567129671574,0.00399462366476655,-0.007856093347072601
1733141838277173800,10.993173828125,0.015579032711684704,0.002929390873759985,-0.004660394508391619
1733141838287243000,11.003242919921876,0.015579032711684704,0.0007989247678779066,-0.004660394508391619
1733141838297319400,11.0133193359375,0.015579032711684704,-0.00452724052593112,-0.0014646954368799925
1733141838307400700,11.023400634765625,0.015579032711684704,-0.014114337973296642,0.004926702938973904
1733141838317485600,11.033485595703125,0.012383334338665009,-0.023701434955000877,0.009187635034322739
1733141838327572000,11.043572021484374,0.011318100616335869,-0.029027599841356277,0.010252867825329304
1733141838337651000,11.05365087890625,0.011318100616335869,-0.030092833563685417,0.005991935729980469
1733141838347694000,11.063694091796876,0.010252867825329304,-0.024766668677330017,0.0038614696823060513
1733141838357735000,11.07373486328125,0.011318100616335869,-0.010918638668954372,0.0017310036346316338
1733141838367775700,11.083775634765624,0.014513799920678139,0.00399462366476655,0.0017310036346316338
1733141838377816300,11.09381640625,0.02090519852936268,0.002929390873759985,-0.00359516148455441
1733141838387857200,11.103857177734374,0.02623136341571808,-0.00133154122158885,-0.008921326138079166
1733141838397781200,11.11378125,0.02623136341571808,-0.005592473316937685,-0.0014646954368799925
1733141838407714600,11.123714599609375,0.02303566411137581,-0.020505735650658607,0.009187635034322739
1733141838417661400,11.133661376953125,0.02197043038904667,-0.014114337973296642,0.010252867825329304
1733141838427625200,11.143625244140624,0.02623136341571808,-0.008788172155618668,-0.009986559860408306
1733141838437608000,11.15360791015625,0.02516612969338894,-0.005592473316937685,-0.03129122033715248
1733141838447606500,11.1636064453125,0.01983996480703354,-0.0034620072692632675,-0.03874785080552101
1733141838457627000,11.173626953125,0.01664426550269127,-0.005592473316937685,-0.03661738336086273
1733141838467669200,11.183669189453125,0.013448567129671574,-0.00452724052593112,-0.03448691964149475
1733141838477732400,11.193732421875,0.012383334338665009,0.002929390873759985,-0.03448691964149475
1733141838487814700,11.203814697265624,0.015579032711684704,0.009320789016783237,-0.04087831825017929
1733141838497909000,11.213908935546876,0.01664426550269127,0.009320789016783237,-0.04194355010986328
1733141838508018000,11.224017822265624,0.01770949922502041,0.00399462366476655,-0.03555215150117874
1733141838518137600,11.2341376953125,0.01770949922502041,-0.00452724052593112,-0.02276935614645481
1733141838528264700,11.2442646484375,0.01770949922502041,-0.009853405877947807,-0.015312724746763706
1733141838538395600,11.254395751953124,0.01770949922502041,-0.011983871459960938,-0.008921326138079166
1733141838548406300,11.26440625,0.01664426550269127,-0.009853405877947807,-0.004660394508391619
1733141838558423000,11.274423095703124,0.014513799920678139,-0.0002663082559593022,-0.0003994623839389533
1733141838568446500,11.284446533203125,0.012383334338665009,0.0061250897124409676,0.0038614696823060513
1733141838578477000,11.29447705078125,0.012383334338665009,0.011451254598796368,0.004926702938973904
1733141838588515300,11.304515380859375,0.013448567129671574,0.012516488321125507,0.0017310036346316338
1733141838598556000,11.314555908203126,0.012383334338665009,0.012516488321125507,-0.0003994623839389533
1733141838608603600,11.324603759765624,0.010252867825329304,0.013581721112132072,0.000665770610794425
1733141838618658000,11.334657958984375,0.011318100616335869,0.015712186694145203,-0.0003994623839389533
1733141838628718600,11.344718505859374,0.010252867825329304,0.013581721112132072,-0.0025299284607172012
1733141838638779000,11.35477880859375,0.009187635034322739,0.00399462366476655,-0.0003994623839389533
1733141838648843500,11.364843505859374,0.009187635034322739,-0.008788172155618668,0.0017310036346316338
1733141838658911000,11.374910888671875,0.005991935729980469,-0.006657706573605537,0.008122402243316174
1733141838668906800,11.38490673828125,0.005991935729980469,0.0050598569214344025,0.010252867825329304
1733141838678909200,11.3949091796875,0.005991935729980469,0.017842652276158333,0.004926702938973904
1733141838688919600,11.40491943359375,0.004926702938973904,0.024234050884842873,0.0027962366584688425
1733141838698938600,11.414938720703125,0.0027962366584688425,0.021038351580500603,0.0017310036346316338
1733141838708967200,11.42496728515625,0.000665770610794425,0.017842652276158333,-0.0003994623839389533
1733141838719005400,11.43500537109375,0.000665770610794425,0.014646953903138638,-0.00359516148455441
1733141838729053000,11.445052978515625,-0.0014646954368799925,0.00399462366476655,-0.0014646954368799925
1733141838739104800,11.455104736328124,-0.004660394508391619,-0.005592473316937685,0.000665770610794425
1733141838749164800,11.465164794921876,-0.00359516148455441,-0.009853405877947807,-0.0003994623839389533
1733141838759232000,11.47523193359375,-0.004660394508391619,-0.009853405877947807,-0.0014646954368799925
1733141838769300200,11.48530029296875,-0.007856093347072601,-0.009853405877947807,-0.0014646954368799925
1733141838779373000,11.495373046875,-0.008921326138079166,-0.006657706573605537,-0.0025299284607172012
1733141838789449000,11.505448974609376,-0.007856093347072601,0.0018641578499227762,-0.005725627299398184
1733141838799526700,11.515526611328125,-0.005725627299398184,0.010386021807789803,-0.009986559860408306
1733141838809604900,11.52560498046875,-0.00359516148455441,0.011451254598796368,-0.011051792651414871
1733141838819532300,11.5355322265625,-0.0025299284607172012,0.00399462366476655,-0.011051792651414871
1733141838829469200,11.54546923828125,-0.0025299284607172012,-0.00452724052593112,-0.009986559860408306
1733141838839419400,11.55541943359375,-0.0014646954368799925,-0.00452724052593112,-0.009986559860408306
1733141838849385700,11.5653857421875,-0.00359516148455441,0.002929390873759985,-0.009986559860408306
1733141838859370800,11.575370849609374,-0.005725627299398184,0.013581721112132072,-0.005725627299398184
1733141838869371100,11.58537109375,-0.0003994623839389533,0.012516488321125507,-0.011051792651414871
1733141838879392800,11.595392822265625,0.0017310036346316338,0.00719032296910882,-0.0185084231197834
1733141838889435400,11.605435302734374,-0.0003994623839389533,0.0050598569214344025,-0.011051792651414871
1733141838899498500,11.61549853515625,-0.0025299284607172012,-0.006657706573605537,-0.0003994623839389533
1733141838909580000,11.625580078125,-0.0025299284607172012,-0.0002663082559593022,-0.0025299284607172012
1733141838919678000,11.635677978515625,-0.0014646954368799925,0.011451254598796368,-0.02170412242412567
1733141838929789200,11.6457890625,-0.00359516148455441,0.011451254598796368,-0.04513924941420555
1733141838939910700,11.65591064453125,-0.009986559860408306,0.002929390873759985,-0.05259587988257408
1733141838950038500,11.66603857421875,-0.011051792651414871,-0.011983871459960938,-0.03874785080552101
1733141838960169000,11.6761689453125,-0.009986559860408306,-0.022636201232671738,-0.0185084231197834
1733141838970278700,11.686278564453126,-0.007856093347072601,-0.026897134259343147,-0.007856093347072601
1733141838980320000,11.696320068359375,-0.006790860556066036,-0.023701434955000877,-0.011051792651414871
1733141838990360800,11.70636083984375,-0.004660394508391619,-0.020505735650658607,-0.02063889056444168
1733141839000401700,11.716401611328125,-0.004660394508391619,-0.017310036346316338,-0.02276935614645481
1733141839010442500,11.7264423828125,-0.00359516148455441,-0.011983871459960938,-0.02063889056444168
1733141839020483600,11.736483642578126,-0.0003994623839389533,-0.005592473316937685,-0.01957365684211254
1733141839030524700,11.746524658203125,0.0017310036346316338,-0.00452724052593112,-0.01957365684211254
1733141839040566000,11.75656591796875,0.0027962366584688425,-0.008788172155618668,-0.01637795753777027
1733141839050607400,11.766607421875,0.0027962366584688425,-0.017310036346316338,-0.005725627299398184
1733141839060649000,11.77664892578125,0.0027962366584688425,-0.023701434955000877,0.005991935729980469
1733141839070690800,11.78669091796875,0.0017310036346316338,-0.022636201232671738,0.013448567129671574
1733141839080732700,11.796732666015625,0.000665770610794425,-0.017310036346316338,0.013448567129671574
1733141839090774500,11.8067744140625,-0.0003994623839389533,-0.017310036346316338,0.009187635034322739
1733141839100816600,11.816816650390624,-0.0025299284607172012,-0.019440501928329468,0.007057168986648321
1733141839110858800,11.826858642578125,-0.0025299284607172012,-0.013049104250967503,0.004926702938973904
1733141839120901000,11.836901123046875,-0.0014646954368799925,-0.0023967742454260588,-0.0025299284607172012
1733141839130943200,11.846943115234374,-0.0014646954368799925,0.0018641578499227762,-0.005725627299398184
1733141839140985300,11.8569853515625,-0.0003994623839389533,-0.0023967742454260588,-0.007856093347072601
1733141839151027700,11.86702783203125,-0.0003994623839389533,-0.006657706573605537,-0.00359516148455441
1733141839161069600,11.877069580078125,-0.0025299284607172012,-0.005592473316937685,0.0027962366584688425
1733141839171111200,11.887111083984376,0.000665770610794425,-0.00133154122158885,0.0027962366584688425
1733141839181153000,11.897153076171875,-0.0014646954368799925,0.0007989247678779066,0.000665770610794425
1733141839191194600,11.907194580078125,-0.0014646954368799925,-0.0034620072692632675,-0.0014646954368799925
1733141839201236500,11.917236572265624,-0.00359516148455441,-0.008788172155618668,-0.00359516148455441
1733141839211278000,11.927278076171875,-0.005725627299398184,-0.009853405877947807,-0.00359516148455441
1733141839221319700,11.937319580078125,-0.005725627299398184,-0.009853405877947807,-0.0025299284607172012
1733141839231361300,11.947361328125,-0.006790860556066036,-0.013049104250967503,-0.0014646954368799925
1733141839241403100,11.957403076171875,-0.005725627299398184,-0.017310036346316338,-0.0025299284607172012
1733141839251325200,11.9673251953125,-0.00359516148455441,-0.019440501928329468,-0.00359516148455441
1733141839261257000,11.977257080078125,0.0017310036346316338,-0.016244804486632347,-0.004660394508391619
1733141839271202300,11.987202392578125,0.004926702938973904,-0.011983871459960938,-0.0014646954368799925
1733141839281164500,11.99716455078125,0.005991935729980469,-0.009853405877947807,0.000665770610794425
1733141839291146200,12.007146240234375,0.009187635034322739,-0.0077229393646121025,0.0027962366584688425
1733141839301149000,12.01714892578125,0.009187635034322739,-0.00452724052593112,-0.0003994623839389533
1733141839311173000,12.027173095703125,0.010252867825329304,-0.006657706573605537,-0.0025299284607172012
1733141839321219000,12.037218994140625,0.010252867825329304,-0.0077229393646121025,-0.00359516148455441
1733141839331285500,12.047285400390624,0.011318100616335869,-0.006657706573605537,-0.005725627299398184
1733141839341370600,12.05737060546875,0.009187635034322739,-0.005592473316937685,-0.00359516148455441
1733141839351472000,12.06747216796875,0.007057168986648321,0.0018641578499227762,0.004926702938973904
1733141839361586700,12.077586669921875,0.008122402243316174,0.010386021807789803,0.010252867825329304
1733141839371711000,12.0877109375,0.010252867825329304,0.013581721112132072,-0.0003994623839389533
1733141839381841400,12.09784130859375,0.010252867825329304,0.015712186694145203,-0.0014646954368799925
1733141839391974000,12.107973876953125,0.009187635034322739,0.0007989247678779066,0.011318100616335869
1733141839402023000,12.11802294921875,0.007057168986648321,-0.015179570764303207,0.02090519852936268
1733141839412073700,12.12807373046875,0.005991935729980469,-0.011983871459960938,0.01664426550269127
1733141839422125600,12.13812548828125,0.0038614696823060513,-0.0034620072692632675,-0.00359516148455441
1733141839432178000,12.148177978515625,0.000665770610794425,-0.0023967742454260588,-0.02596505545079708
1733141839442230800,12.158230712890624,-0.0025299284607172012,-0.010918638668954372,-0.02596505545079708
