time,seconds_elapsed,z,y,x
1733141827381847000,0.097846923828125,9.809642791748047,4.0976762771606445,-1.1713632345199585
1733141827391806500,0.107806396484375,10.412981986999512,4.021061897277832,-1.425148606300354
1733141827401780200,0.1177802734375,10.854113578796387,3.8965632915496826,-1.4347254037857056
1733141827411775200,0.127775146484375,11.165359497070312,3.6954503059387207,-1.27191960811615
1733141827421792500,0.13779248046875,11.256339073181152,3.5470097064971924,-1.1569979190826416
1733141827431832300,0.147832275390625,10.949881553649902,3.556586742401123,-1.0468647480010986
1733141827441894000,0.157893798828125,10.561422348022461,3.561375141143799,-1.0133458375930786
1733141827451975200,0.16797509765625,10.020332336425781,3.3889925479888916,-1.128267526626587
1733141827462074000,0.17807421875,9.498396873474121,3.163937568664551,-1.3150153160095215
1733141827472186600,0.1881865234375,9.105149269104004,3.1735143661499023,-1.5065513849258423
1733141827482310100,0.19831005859375,8.544905662536621,3.3219549655914307,-1.5735890865325928
1733141827492437000,0.20843701171875,8.070255279541016,3.441664934158325,-1.7411831617355347
1733141827502543400,0.21854345703125,7.888296127319336,3.5709519386291504,-1.71245276927948
1733141827512584200,0.228584228515625,8.003217697143555,3.5661635398864746,-1.6214730739593506
1733141827522629600,0.238629638671875,8.324040412902832,3.5278561115264893,-1.669357180595398
1733141827532667600,0.248667724609375,8.559270858764648,3.4320881366729736,-1.8950105905532837
1733141827542710500,0.25871044921875,8.942343711853027,3.446453332901001,-2.0482394695281982
1733141827552751000,0.268751220703125,9.047688484191895,3.618835926055908,-1.7747019529342651
1733141827562796300,0.27879638671875,9.062053680419922,3.9923312664031982,-0.9846154451370239
1733141827572834600,0.28883447265625,9.220070838928223,4.48134708404541,-0.12210428714752197
1733141827582877700,0.298877685546875,9.484031677246094,4.79738187789917,0.5009866952896118
1733141827592917800,0.308917724609375,9.699509620666504,4.912303447723389,0.9558850526809692
1733141827602962700,0.318962646484375,9.77133560180664,4.840477466583252,0.8601169586181641
1733141827613012000,0.329011962890625,9.517550468444824,4.75428581237793,0.28969839215278625
1733141827623065600,0.339065673828125,8.942343711853027,4.763862609863281,-0.48602294921875
1733141827633122300,0.349122314453125,8.213907241821289,5.01285982131958,-0.9702502489089966
1733141827643181800,0.359181884765625,7.2125325202941895,5.4013190269470215,-0.7595604658126831
1733141827653243400,0.369243408203125,6.293159008026123,5.746084213256836,0.0933738648891449
1733141827663305700,0.3793056640625,5.626972675323486,5.913678169250488,0.9175778031349182
1733141827673368000,0.3893681640625,5.559935092926025,6.143521785736084,1.5502456426620483
1733141827683413200,0.399413330078125,13.105859756469727,5.698200225830078,8.017582893371582
1733141827693454000,0.4094541015625,12.109273910522461,5.60722017288208,7.830835342407227
1733141827703495200,0.4194951171875,7.049726963043213,7.226299285888672,2.560598611831665
1733141827713536300,0.429536376953125,5.507262229919434,8.040925979614258,0.7260416746139526
1733141827723577300,0.439577392578125,5.823297023773193,6.876745700836182,-0.011971008032560349
1733141827733618400,0.449618408203125,6.508637428283691,6.531980991363525,-1.027711033821106
1733141827743659800,0.45965966796875,6.62355899810791,5.640739440917969,-0.6009446382522583
1733141827753701400,0.469701416015625,6.546944618225098,5.333683013916016,0.026336219161748886
1733141827763743000,0.479742919921875,7.150283336639404,5.32889461517334,0.5057750940322876
1733141827773784800,0.489784912109375,7.452551364898682,5.382165431976318,0.8505401611328125
1733141827783826700,0.49982666015625,7.557896137237549,5.698200225830078,1.0708067417144775
1733141827793868500,0.50986865234375,7.979275703430176,6.04775333404541,0.74040687084198
1733141827803910700,0.51991064453125,8.47786808013916,6.033388137817383,-0.12210428714752197
1733141827813952800,0.529952880859375,8.588001251220703,5.635950565338135,-0.4908113479614258
1733141827823995100,0.5399951171875,7.26101541519165,5.142146587371826,-0.4812345504760742
1733141827834037200,0.550037353515625,6.657077789306641,5.079897403717041,-0.5099649429321289
1733141827844079600,0.56007958984375,7.174225330352783,5.295375823974609,-1.3772644996643066
1733141827854121700,0.570121826171875,6.489483833312988,5.382165431976318,-0.5339069962501526
1733141827864163600,0.58016357421875,7.438186168670654,5.180453777313232,-0.8649053573608398
1733141827874205400,0.590205322265625,8.789113998413086,4.735132217407227,-0.4429273009300232
1733141827884246800,0.600246826171875,9.608530044555664,4.380790710449219,2.0147206783294678
1733141827894288100,0.6102880859375,10.653000831604004,4.730343818664551,5.550358295440674
1733141827904329500,0.62032958984375,11.8411226272583,5.439626216888428,7.768586158752441
1733141827914371000,0.63037109375,11.672930717468262,5.975927352905273,7.304111003875732
1733141827924412700,0.64041259765625,11.016919136047363,6.090848922729492,4.065354347229004
1733141827934454300,0.650454345703125,9.229647636413574,5.760449409484863,1.0995371341705322
1733141827944469800,0.6604697265625,9.41639518737793,5.530605792999268,-0.6105214357376099
1733141827954469400,0.670469482421875,11.45266342163086,4.883573055267334,-2.1775264739990234
1733141827964468700,0.68046875,8.146869659423828,5.19481897354126,-0.33279404044151306
1733141827974469600,0.6904697265625,6.867767810821533,5.233126163482666,-0.2082955539226532
1733141827984473300,0.700473388671875,7.1885905265808105,5.4252610206604,0.17477671802043915
1733141827994481400,0.7104814453125,8.027159690856934,6.1052141189575195,1.0899603366851807
1733141828004495000,0.7204951171875,9.014169692993164,6.608595371246338,2.7958290576934814
1733141828014515000,0.730514892578125,7.519588947296143,6.843226909637451,2.40736985206604
1733141828024546800,0.740546875,6.081871032714844,6.8336501121521,1.9620482921600342
1733141828034588200,0.750588134765625,5.890334606170654,6.962936878204346,1.4347254037857056
1733141828044637400,0.760637451171875,6.379350662231445,7.393893241882324,0.6446388363838196
1733141828054692600,0.770692626953125,7.207744121551514,7.1688385009765625,0.6925228238105774
1733141828064753000,0.7807529296875,7.6297221183776855,6.258443355560303,1.4395138025283813
1733141828074817500,0.790817626953125,7.893084526062012,5.3576250076293945,2.005143880844116
1733141828084885000,0.800885009765625,9.023746490478516,5.1996073722839355,1.7178397178649902
1733141828094954800,0.810954833984375,10.293272018432617,5.463568210601807,0.6542156338691711
1733141828105029600,0.821029541015625,11.36168384552002,5.702988624572754,1.4969745874404907
1733141828115085600,0.83108544921875,10.791864395141602,6.196194171905518,1.4155718088150024
1733141828125141500,0.8411416015625,9.287108421325684,5.779603004455566,1.0324994325637817
1733141828135198200,0.8511982421875,8.343194007873535,6.14831018447876,-0.6488286852836609
1733141828145210400,0.86121044921875,10.83974838256836,5.693411827087402,4.089296340942383
1733141828155229000,0.87122900390625,8.4108304977417,4.534019470214844,4.5154643058776855
1733141828165254000,0.88125390625,6.561309814453125,4.615422248840332,4.261679172515869
1733141828175285200,0.89128515625,5.890334606170654,4.337695121765137,2.9203274250030518
1733141828185322200,0.901322265625,6.2165446281433105,5.779603004455566,-0.20350714027881622
1733141828195362000,0.911362060546875,7.241861820220947,7.575852870941162,-2.364274263381958
1733141828205404200,0.921404052734375,7.725490570068359,7.629123687744141,-1.3964180946350098
1733141828215448600,0.931448486328125,6.657077789306641,8.237251281738281,-0.3471592366695404
1733141828225495300,0.941495361328125,3.4326868057250977,9.233837127685547,0.5871779918670654
1733141828235543600,0.95154345703125,2.297236442565918,8.529343605041504,2.029085874557495
1733141828245593000,0.961593017578125,1.8806453943252563,8.404845237731934,2.584540843963623
1733141828255644000,0.971643798828125,0.5009866952896118,9.291297912597656,1.7561469078063965
1733141828265700000,0.9817001953125,0.24660277366638184,9.023147583007812,1.5119383335113525
1733141828275752700,0.991752685546875,1.96683669090271,7.68658447265625,1.5454572439193726
1733141828285809700,1.0018095703125,4.285621166229248,6.819284915924072,0.9271546006202698
1733141828295836200,1.011836181640625,5.990890979766846,6.076483726501465,0.7930793166160583
1733141828305867800,1.02186767578125,7.5674729347229,6.110002517700195,1.4299370050430298
1733141828315900400,1.031900390625,7.926603317260742,5.851428985595703,2.3786394596099854
1733141828325939000,1.04193896484375,7.802104949951172,5.127781391143799,3.245939016342163
1733141828335978500,1.051978515625,7.65845251083374,4.534019470214844,4.414907932281494
1733141828346023700,1.062023681640625,6.9731125831604,3.9157168865203857,4.879981517791748
1733141828356070000,1.07206982421875,6.36498498916626,3.5039141178131104,4.831499099731445
1733141828366121200,1.082121337890625,6.350619792938232,3.1878795623779297,4.644751071929932
1733141828376169700,1.092169677734375,6.067505836486816,2.9526493549346924,3.7199909687042236
1733141828386222800,1.102222900390625,6.80551815032959,3.3458969593048096,4.2090067863464355
1733141828396253000,1.1122529296875,7.332841396331787,3.575740337371826,3.9456443786621094
1733141828406288100,1.1222880859375,6.494272232055664,4.366425514221191,2.6180596351623535
1733141828416328400,1.132328369140625,6.000467777252197,6.517615795135498,1.8519150018692017
1733141828426374400,1.14237451171875,5.540781497955322,7.705738067626953,1.4778209924697876
1733141828436424700,1.1524248046875,5.603030681610107,6.133944988250732,2.3307554721832275
1733141828446479600,1.162479736328125,5.670068264007568,5.693411827087402,3.5859155654907227
1733141828456503600,1.172503662109375,5.085883140563965,6.200982570648193,4.046200752258301
1733141828466532900,1.182532958984375,5.449801445007324,6.028599739074707,4.003105163574219
1733141828476568000,1.192568115234375,4.927267074584961,6.646902561187744,3.624222755432129
1733141828486609200,1.202609130859375,5.468955039978027,7.178415298461914,2.7670986652374268
1733141828496655600,1.212655517578125,6.537367820739746,7.1257429122924805,2.0482394695281982
1733141828506707500,1.22270751953125,7.428609371185303,6.555922985076904,1.2575544118881226
1733141828516763600,1.232763671875,8.813055992126465,7.350797653198242,-1.6597803831100464
1733141828526823700,1.24282373046875,9.402029991149902,8.337807655334473,-2.756923198699951
1733141828536886800,1.25288671875,9.498396873474121,9.636063575744629,-2.278082847595215
1733141828546951700,1.26295166015625,9.469067573547363,10.182539939880371,-0.17956513166427612
1733141828557017600,1.273017578125,9.603741645812988,9.640851974487305,2.167949676513672
1733141828567082200,1.283082275390625,10.240599632263184,7.796717643737793,2.4791958332061768
1733141828577123800,1.293123779296875,9.843161582946777,5.309741020202637,1.0085574388504028
1733141828587165400,1.30316552734375,10.087369918823242,5.319317817687988,-0.35673606395721436
1733141828597207300,1.313207275390625,10.355521202087402,6.114790916442871,-0.8313865661621094
1733141828607249000,1.323248779296875,10.90678596496582,6.143521785736084,0.33758243918418884
1733141828617290500,1.33329052734375,10.55184555053711,6.320692539215088,2.005143880844116
1733141828627211800,1.343211669921875,9.972448348999023,6.3973069190979,3.9647979736328125
1733141828637142800,1.353142822265625,10.561422348022461,6.929418087005615,4.036623954772949
1733141828647087400,1.36308740234375,11.529278755187988,7.672219276428223,2.9730000495910645
1733141828657048800,1.373048828125,12.16673469543457,8.165425300598145,1.8614917993545532
1733141828667030000,1.383030029296875,12.454038619995117,8.400056838989258,1.4347254037857056
1733141828677032200,1.3930322265625,12.554594993591309,8.605957984924316,1.4299370050430298
1733141828687056400,1.403056396484375,12.477980613708496,8.44315242767334,1.8567034006118774
1733141828697102000,1.41310205078125,12.420519828796387,7.8781208992004395,2.412158250808716
1733141828707168800,1.423168701171875,12.6551513671875,7.082647323608398,2.6665420532226562
1733141828717254100,1.433254150390625,12.707823753356934,6.512827396392822,2.369062662124634
1733141828727356000,1.44335595703125,12.157157897949219,6.646902561187744,1.9572598934173584
1733141828737470700,1.453470703125,10.945093154907227,6.7714009284973145,1.7705121040344238
1733141828747595800,1.463595703125,9.29189682006836,6.656479358673096,1.6412252187728882
1733141828757726700,1.473726806640625,7.423820972442627,6.531980991363525,1.698686122894287
1733141828767860200,1.483860107421875,6.024410247802734,6.110002517700195,1.6747441291809082
1733141828777958000,1.4939580078125,5.670068264007568,5.48272180557251,1.6891093254089355
1733141828787999500,1.50399951171875,6.211756229400635,5.017648220062256,1.622071623802185
1733141828798041000,1.514041015625,6.585251808166504,4.457405090332031,2.62823486328125
1733141828808082700,1.524082763671875,6.661866188049316,4.438251495361328,4.017470359802246
1733141828818124500,1.53412451171875,6.331466197967529,4.3855791091918945,5.296572685241699
1733141828828166100,1.544166259765625,5.727529048919678,4.092887878417969,6.297947406768799
1733141828838207700,1.554207763671875,4.855441093444824,3.8391025066375732,6.508637428283691
1733141828848249600,1.56424951171875,3.6721067428588867,3.7050271034240723,5.990890979766846
1733141828858291200,1.574291259765625,2.167949676513672,3.3698389530181885,5.0715179443359375
1733141828868332800,1.584332763671875,0.5201402902603149,3.6571431159973145,3.648164749145508
1733141828878374400,1.59437451171875,-0.8984242081642151,3.8965632915496826,2.412158250808716
1733141828888416300,1.604416259765625,-2.565387010574341,3.8821980953216553,1.866280198097229
1733141828898457900,1.614457763671875,-4.496310710906982,3.575740337371826,2.3738510608673096
1733141828908499500,1.62449951171875,-5.559935092926025,3.293224334716797,2.8820202350616455
1733141828918541000,1.634541015625,-5.277419090270996,3.2549171447753906,3.1453824043273926
1733141828928583000,1.6445830078125,-3.8157589435577393,3.139995574951172,4.017470359802246
1733141828938624500,1.65462451171875,-2.072181463241577,3.3315317630767822,4.8602294921875
1733141828948666400,1.664666259765625,-1.1522095203399658,3.977966070175171,4.6734819412231445
1733141828958708000,1.6747080078125,-1.4826093912124634,5.065532207489014,3.025672435760498
1733141828968749600,1.68474951171875,-3.2794578075408936,6.086060523986816,0.6206967830657959
1733141828978791400,1.69479150390625,-5.694010257720947,6.0621185302734375,-1.0660183429718018
1733141828988833300,1.704833251953125,-8.142081260681152,6.18182897567749,-1.755548357963562
1733141828998875100,1.714875244140625,-10.049062728881836,6.843226909637451,-1.449090600013733
1733141829008916700,1.724916748046875,-11.380837440490723,7.91163969039917,-0.8313865661621094
1733141829018958600,1.73495849609375,-13.086706161499023,9.047089576721191,0.2944868206977844
1733141829029000200,1.745000244140625,-15.525200843811035,9.592967987060547,1.0899603366851807
1733141829039041800,1.755041748046875,-17.0389347076416,10.043676376342773,-0.40940847992897034
1733141829049083400,1.76508349609375,-17.316661834716797,10.642226219177246,-1.6837223768234253
1733141829059125200,1.775125244140625,-16.708534240722656,10.402806282043457,-1.7459715604782104
1733141829069166800,1.785166748046875,-14.83507251739502,9.779715538024902,-0.5674257874488831
1733141829079208400,1.79520849609375,-11.98477554321289,9.133280754089355,0.9750386476516724
1733141829089250000,1.80525,-9.430760383605957,8.836400032043457,2.345120668411255
1733141829099292000,1.8152919921875,-7.5866265296936035,8.687360763549805,3.135805606842041
1733141829109333500,1.82533349609375,-6.321889400482178,8.548497200012207,3.336918592453003
1733141829119375000,1.835375,-4.9799394607543945,8.423998832702637,3.1980550289154053
1733141829129416700,1.845416748046875,-3.710414171218872,8.400056838989258,3.1501708030700684
1733141829139339800,1.85533984375,-2.718616008758545,8.491036415100098,3.183689594268799
1733141829149272000,1.86527197265625,-1.568800687789917,8.486248016357422,3.514089584350586
1733141829159218000,1.875218017578125,-0.4429273009300232,8.577227592468262,4.271255970001221
1733141829169180400,1.885180419921875,0.05506663769483566,9.013570785522461,4.793191909790039
1733141829179162600,1.89516259765625,0.17477671802043915,9.636063575744629,4.918288707733154
1733141829189165300,1.905165283203125,0.9798270463943481,10.043676376342773,4.730942726135254
1733141829199189800,1.915189697265625,1.866280198097229,10.139444351196289,4.7405195236206055
1733141829209235700,1.925235595703125,3.092710018157959,9.93354320526123,4.793191909790039
1733141829219302100,1.93530224609375,4.558559894561768,9.55466079711914,4.67827033996582
1733141829229387000,1.945386962890625,5.660491466522217,9.4014310836792,4.548983097076416
1733141829239483100,1.955483154296875,5.789778232574463,9.382277488708496,4.596867084503174
1733141829249592800,1.9655927734375,5.698798656463623,9.387065887451172,4.568136692047119
1733141829259712800,1.975712646484375,6.647500991821289,9.142857551574707,4.252102375030518
1733141829269839400,1.98583935546875,8.860940933227539,8.769362449645996,3.643376350402832
1733141829279969300,1.99596923828125,11.376049041748047,8.265981674194336,2.8580782413482666
1733141829290084000,2.006083984375,13.19205093383789,7.5902180671691895,2.6228480339050293
1733141829300126000,2.0161259765625,13.51766300201416,7.0156097412109375,3.140594005584717
1733141829310167300,2.026167236328125,12.683881759643555,6.613383769989014,3.605069160461426
1733141829320209000,2.036208984375,11.481393814086914,6.215347766876221,3.9169139862060547
1733141829330250500,2.04625048828125,10.068216323852539,5.841852188110352,3.892971992492676
1733141829340292000,2.0562919921875,8.846575736999512,5.333683013916016,3.758896589279175
1733141829350333700,2.066333740234375,7.907449722290039,4.993706226348877,3.5045127868652344
1733141829360375300,2.076375244140625,6.489483833312988,4.376002311706543,3.9264907836914062
1733141829370417000,2.0864169921875,5.047575950622559,3.604470729827881,4.596867084503174
1733141829380458200,2.096458251953125,3.50930118560791,3.1735143661499023,4.9565958976745605
1733141829390499800,2.106499755859375,1.9045875072479248,2.2631192207336426,5.531204700469971
1733141829400541700,2.116541748046875,-0.40940847992897034,1.7932571172714233,5.957372188568115
1733141829410583300,2.126583251953125,-5.392340660095215,1.9129672050476074,6.355408191680908
1733141829420625200,2.136625244140625,-15.088857650756836,3.135207176208496,6.115988254547119
1733141829430666800,2.146666748046875,-57.915740966796875,2.3110032081604004,9.819219589233398
1733141829440708600,2.15670849609375,-99.33782196044922,8.754997253417969,6.226121425628662
1733141829450750200,2.166750244140625,-11.89379596710205,7.283760070800781,-0.9463081955909729
1733141829460792000,2.1767919921875,-2.4361002445220947,1.6160861253738403,2.431311845779419
1733141829470834000,2.186833984375,-0.14604631066322327,5.218760967254639,0.9463081955909729
1733141829480875800,2.196875732421875,-0.6105214357376099,7.465719223022461,0.9510966539382935
1733141829490917600,2.206917724609375,-1.611896276473999,8.1941556930542,2.0626046657562256
1733141829500959500,2.21695947265625,-2.6850972175598145,9.047089576721191,2.455253839492798
1733141829511001000,2.2270009765625,-5.008669853210449,9.291297912597656,2.5558102130889893
1733141829521043000,2.23704296875,-7.893084526062012,9.138069152832031,2.426523447036743
1733141829531084800,2.247084716796875,-10.250176429748535,8.605957984924316,2.187103271484375
1733141829541126700,2.257126708984375,-12.142792701721191,8.146271705627441,1.9476830959320068
1733141829551168500,2.26716845703125,-13.278243064880371,7.379528045654297,2.05781626701355
1733141829561210400,2.27721044921875,-13.254301071166992,6.74267053604126,2.383427858352661
1733141829571251700,2.287251708984375,-12.659939765930176,6.430825710296631,2.584540843963623
1733141829581293000,2.29729296875,-11.960833549499512,6.344634532928467,2.7335798740386963
1733141829591334700,2.307334716796875,-11.529278755187988,6.435614109039307,2.8820202350616455
1733141829601376000,2.3173759765625,-11.016919136047363,6.785766124725342,2.522291421890259
1733141829611417600,2.32741748046875,-10.087369918823242,7.154473304748535,2.3594858646392822
1733141829621459000,2.337458984375,-8.631096839904785,7.5902180671691895,2.3259668350219727
1733141829631500500,2.34750048828125,-6.561309814453125,8.079233169555664,2.0913352966308594
1733141829641542000,2.3575419921875,-4.357447147369385,8.38569164276123,1.8710685968399048
1733141829651583500,2.36758349609375,-2.4025814533233643,8.22767448425293,2.2828712463378906
1733141829661625000,2.377625,0.43335050344467163,8.045714378356934,3.1214404106140137
1733141829671667000,2.3876669921875,3.998316764831543,8.055291175842285,4.10366153717041
1733141829681708800,2.397708740234375,7.375936985015869,7.993042469024658,5.325303077697754
1733141829691750400,2.40775048828125,10.825383186340332,7.940370082855225,5.847239017486572
1733141829701792500,2.41779248046875,14.016255378723145,7.81108283996582,5.416282653808594
1733141829711834400,2.42783447265625,15.606603622436523,7.844601631164551,4.213795185089111
1733141829721876200,2.437876220703125,15.534777641296387,8.007407188415527,3.514089584350586
1733141829731918000,2.44791796875,14.523825645446777,7.7201032638549805,3.3704373836517334
1733141829741960000,2.4579599609375,13.570335388183594,7.197568893432617,3.1980550289154053
1733141829751881700,2.4678818359375,12.645574569702148,6.5942301750183105,3.447052001953125
1733141829761813000,2.47781298828125,11.558009147644043,5.626373767852783,4.290409564971924
1733141829771758000,2.487758056640625,9.833584785461426,4.897938251495361,4.970961093902588
1733141829781719800,2.4977197265625,7.001842975616455,4.414309501647949,4.793191909790039
1733141829791701200,2.507701171875,3.312976598739624,3.934870481491089,4.156333923339844
1733141829801703700,2.51770361328125,-1.8088194131851196,3.5039141178131104,3.6577415466308594
1733141829811728000,2.527727783203125,-11.558009147644043,3.154360771179199,4.1611223220825195
1733141829821773800,2.53777392578125,-62.198368072509766,3.3937809467315674,8.947132110595703
1733141829831840500,2.547840576171875,-95.8931655883789,8.999205589294434,7.524377346038818
1733141829841926000,2.55792578125,-5.032611846923828,2.8808231353759766,2.3355438709259033
1733141829852022800,2.568022705078125,0.10295066982507706,0.1454477459192276,5.243900299072266
1733141829862133500,2.578133544921875,-1.3389573097229004,5.209184169769287,2.297236442565918
1733141829872254500,2.58825439453125,-4.970362663269043,6.910264492034912,1.84233820438385
1733141829882382000,2.598382080078125,-7.6967597007751465,8.361749649047852,1.985990285873413
1733141829892509700,2.608509765625,-10.111311912536621,9.07103157043457,2.3020248413085938
1733141829902627600,2.618627685546875,-11.850101470947266,9.444527626037598,2.2397756576538086
1733141829912548900,2.628548828125,-12.750919342041016,9.406219482421875,2.743156671524048
1733141829922479900,2.63847998046875,-13.06755256652832,9.013570785522461,3.60028076171875
1733141829932419600,2.648419677734375,-12.707823753356934,8.323442459106445,3.8786067962646484
1733141829942376700,2.658376708984375,-11.241973876953125,7.408258438110352,3.4757823944091797
1733141829952349200,2.66834912109375,-8.999804496765137,6.737882137298584,3.447052001953125
1733141829962343700,2.67834375,-6.455965042114258,6.430825710296631,3.8163576126098633
1733141829972356900,2.68835693359375,-4.084507942199707,6.589441776275635,3.97916316986084
1733141829982393600,2.6983935546875,-2.646790027618408,7.039551734924316,3.9217023849487305
1733141829992448500,2.708448486328125,-2.4600422382354736,7.844601631164551,3.293823003768921
1733141830002525000,2.71852490234375,-2.699462413787842,8.778939247131348,2.6180596351623535
1733141830012616000,2.728615966796875,-2.364274263381958,9.28650951385498,2.2637176513671875
1733141830022723800,2.738723876953125,0.49619829654693604,8.884284019470215,2.167949676513672
1733141830032845300,2.74884521484375,4.156333923339844,8.304288864135742,2.6426000595092773
1733141830042976500,2.7589765625,7.4764933586120605,7.9451584815979,3.2842462062835693
1733141830053113300,2.76911328125,10.120888710021973,7.81108283996582,3.715202569961548
1733141830063252000,2.779251953125,11.57237434387207,7.839813232421875,3.801992416381836
1733141830073335800,2.789335693359375,11.433509826660156,7.940370082855225,3.6098575592041016
1733141830083378200,2.799378173828125,11.423933029174805,7.887697696685791,3.2746694087982178
1733141830093419300,2.809419189453125,11.879429817199707,7.619546890258789,3.135805606842041
1733141830103460000,2.819460205078125,13.057975769042969,6.929418087005615,3.686472177505493
1733141830113501200,2.829501220703125,14.667478561401367,6.009446144104004,4.458003520965576
1733141830123542300,2.839542236328125,14.399327278137207,5.185242176055908,5.205593109130859
1733141830133583600,2.84958349609375,12.516287803649902,4.514865875244141,5.6461262702941895
1733141830143625000,2.859625,9.914987564086914,3.776853084564209,5.823297023773193
1733141830153666600,2.86966650390625,6.977900981903076,3.4799721240997314,6.781576156616211
1733141830163708400,2.87970849609375,3.073556423187256,3.642777919769287,7.26101541519165
1733141830173750300,2.889750244140625,-7.078457355499268,3.9252936840057373,7.227496147155762
1733141830183792000,2.899792236328125,-105.71956634521484,6.52719259262085,9.301473617553711
1733141830193834200,2.909834228515625,-70.48230743408203,10.220847129821777,2.9107506275177
1733141830203760400,2.919760498046875,2.469619035720825,-0.07003039866685867,-0.6823474764823914
1733141830213696000,2.929696044921875,6.422446250915527,0.03531447425484657,3.9169139862060547
1733141830223645000,2.93964501953125,5.445013046264648,6.4595561027526855,2.824559450149536
1733141830233610200,2.9496103515625,2.5701754093170166,8.524555206298828,3.2603042125701904
1733141830243594500,2.959594482421875,-1.425148606300354,10.992378234863281,3.1741127967834473
1733141830253599000,2.969598876953125,-8.477270126342773,12.266692161560059,3.250727415084839
1733141830263624400,2.97962451171875,-11.103110313415527,10.781089782714844,3.15974760055542
1733141830273667600,2.98966748046875,-8.09898567199707,8.644265174865723,2.848501443862915
1733141830283731200,2.999731201171875,-5.708375453948975,7.154473304748535,2.982576847076416
1733141830293813000,3.00981298828125,-4.841075897216797,6.402095317840576,2.9490580558776855
1733141830303911000,3.019910888671875,-4.965574264526367,6.915052890777588,2.5510218143463135
1733141830314017300,3.030017333984375,-5.416282653808594,7.527968883514404,2.9107506275177
1733141830324134100,3.040134033203125,-5.070919036865234,7.839813232421875,3.356072187423706
1733141830334258000,3.0502578125,-4.797980308532715,7.940370082855225,3.418321371078491
1733141830344344000,3.060343994140625,-5.14813232421875,7.892486095428467,3.332130193710327
1733141830354431700,3.070431640625,-5.559935092926025,7.906851291656494,3.1070752143859863
1733141830364426500,3.080426513671875,-5.540781497955322,7.897274494171143,2.7958290576934814
1733141830374423300,3.09042333984375,-5.23911190032959,7.863755702972412,2.6132712364196777
1733141830384423700,3.100423583984375,-4.955997467041016,7.825448036193848,2.62823486328125
1733141830394429200,3.11042919921875,-4.754884719848633,7.758410453796387,2.738368272781372
1733141830404440800,3.12044091796875,-4.616020679473877,7.667430877685547,2.9299042224884033
1733141830414460000,3.1304599609375,-4.654327869415283,7.6530656814575195,3.0783448219299316
1733141830424487000,3.14048681640625,-4.8602294921875,7.667430877685547,3.1501708030700684
1733141830434522000,3.150522216796875,-5.085284233093262,7.681796073913574,3.1980550289154053
1733141830444565200,3.160565185546875,-5.23911190032959,7.729680061340332,3.1980550289154053
1733141830454616000,3.170615966796875,-5.339668273925781,7.81108283996582,3.22678542137146
1733141830464675300,3.18067529296875,-5.397129058837891,7.849390506744385,3.269881010055542
1733141830474740500,3.190740478515625,-5.406705856323242,7.844601631164551,3.22678542137146
1733141830484810800,3.200810791015625,-5.258265495300293,7.830236434936523,3.0974984169006348
1733141830494884400,3.21088427734375,-5.099649429321289,7.8062944412231445,2.987365245819092
1733141830504960000,3.2209599609375,-4.965574264526367,7.81108283996582,3.0160956382751465
1733141830515036400,3.231036376953125,-4.879383087158203,7.844601631164551,3.1645359992980957
1733141830525093000,3.241093017578125,-4.845864295959473,7.916428089141846,3.2842462062835693
1733141830535152400,3.25115234375,-4.8937482833862305,7.988254070281982,3.312976598739624
1733141830545182000,3.261181884765625,-5.066130638122559,8.021772384643555,3.2794578075408936
1733141830555211800,3.271211669921875,-5.263053894042969,8.002618789672852,3.2746694087982178
1733141830565242400,3.281242431640625,-5.354033470153809,7.9451584815979,3.178901195526123
1733141830575278800,3.29127880859375,-5.310937881469727,7.835024833679199,3.1262288093566895
1733141830585321200,3.3013212890625,-5.162497520446777,7.782352447509766,3.111863613128662
1733141830595364600,3.311364501953125,-4.9368438720703125,7.77756404876709,3.154959201812744
1733141830605410600,3.32141064453125,-4.865017890930176,7.830236434936523,3.202843427658081
1733141830615457300,3.331457275390625,-4.8937482833862305,7.916428089141846,3.202843427658081
1733141830625504000,3.34150390625,-5.013458251953125,7.9451584815979,3.15974760055542
1733141830635551000,3.351551025390625,-5.0900726318359375,7.902062892913818,3.1310172080993652
1733141830645593900,3.36159375,-5.143343925476074,7.839813232421875,3.087921619415283
1733141830655635200,3.37163525390625,-5.143343925476074,7.830236434936523,3.0544028282165527
1733141830665676300,3.38167626953125,-5.123591423034668,7.825448036193848,2.9969420433044434
1733141830675717600,3.391717529296875,-5.07570743560791,7.835024833679199,3.006518840789795
1733141830685759000,3.401759033203125,-5.04218864440918,7.844601631164551,3.0591912269592285
1733141830695800300,3.41180029296875,-5.051765441894531,7.849390506744385,3.092710018157959
1733141830705841700,3.421841552734375,-5.056553840637207,7.849390506744385,3.0974984169006348
1733141830715883300,3.43188330078125,-5.023035049438477,7.835024833679199,3.092710018157959
1733141830725927000,3.441927001953125,-5.099649429321289,7.820659637451172,3.1070752143859863
1733141830735968800,3.45196875,-5.167285919189453,7.801506042480469,3.135805606842041
1733141830746009600,3.462009521484375,-5.248688697814941,7.782352447509766,3.135805606842041
1733141830756050400,3.472050537109375,-5.358821868896484,7.787140846252441,3.0974984169006348
1733141830766096100,3.48209619140625,-5.373187065124512,7.796717643737793,3.0544028282165527
1733141830776137000,3.492136962890625,-5.27263069152832,7.782352447509766,3.049614429473877
1733141830786182400,3.502182373046875,-5.200804710388184,7.782352447509766,3.092710018157959
1733141830796219600,3.5122197265625,-5.114014625549316,7.77756404876709,3.15974760055542
1733141830806261800,3.52226171875,-5.085284233093262,7.782352447509766,3.2172086238861084
1733141830816303000,3.53230322265625,-5.133767127990723,7.782352447509766,3.2315738201141357
1733141830826343200,3.54234326171875,-5.1816511154174805,7.772775650024414,3.2172086238861084
1733141830836388000,3.55238818359375,-5.253477096557617,7.753622055053711,3.111863613128662
1733141830846433500,3.56243359375,-5.315726280212402,7.729680061340332,3.025672435760498
1733141830856483300,3.5724833984375,-5.282207489013672,7.696161270141602,3.0208840370178223
1733141830866512100,3.58251220703125,-5.23911190032959,7.681796073913574,3.1022868156433105
1733141830876541200,3.592541259765625,-5.258265495300293,7.700949668884277,3.116652011871338
1733141830886576000,3.602576171875,-5.243900299072266,7.710526466369629,3.0974984169006348
1733141830896612000,3.612612060546875,-5.282207489013672,7.724891662597656,3.049614429473877
1733141830906654000,3.622654052734375,-5.3348798751831055,7.772775650024414,3.0783448219299316
1733141830916701400,3.632701416015625,-5.306149482727051,7.787140846252441,3.15974760055542
1733141830926754300,3.64275439453125,-5.263053894042969,7.758410453796387,3.2124202251434326
1733141830936803000,3.652802978515625,-5.219958305358887,7.7201032638549805,3.22678542137146
1733141830946856400,3.6628564453125,-5.234323501586914,7.710526466369629,3.1884782314300537
1733141830956886500,3.672886474609375,-5.277419090270996,7.7201032638549805,3.135805606842041
1733141830966921700,3.682921630859375,-5.234323501586914,7.734468460083008,3.0639796257019043
1733141830976957700,3.692957763671875,-5.172074317932129,7.729680061340332,3.049614429473877
1733141830986994200,3.702994140625,-5.162497520446777,7.744045257568359,3.0639796257019043
1733141830997036300,3.713036376953125,-5.157709121704102,7.7631988525390625,3.073556423187256
1733141831007079200,3.7230791015625,-5.162497520446777,7.77756404876709,3.049614429473877
1733141831017127200,3.733127197265625,-5.191227912902832,7.796717643737793,3.049614429473877
1733141831027180300,3.74318017578125,-5.186439514160156,7.820659637451172,3.1453824043273926
1733141831037237500,3.753237548828125,-5.172074317932129,7.849390506744385,3.2315738201141357
1733141831047262200,3.76326220703125,-5.210381507873535,7.835024833679199,3.250727415084839
1733141831057287400,3.773287353515625,-5.210381507873535,7.796717643737793,3.1741127967834473
1733141831067318800,3.78331884765625,-5.200804710388184,7.77756404876709,3.0974984169006348
1733141831077356300,3.793356201171875,-5.196016311645508,7.791929244995117,3.0208840370178223
1733141831087400000,3.80339990234375,-5.196016311645508,7.81108283996582,3.006518840789795
1733141831097449200,3.81344921875,-5.248688697814941,7.825448036193848,3.0208840370178223
1733141831107499300,3.823499267578125,-5.349245071411133,7.839813232421875,3.0831332206726074
1733141831117554200,3.83355419921875,-5.397129058837891,7.839813232421875,3.1310172080993652
1733141831127613200,3.84361328125,-5.3348798751831055,7.81108283996582,3.1932666301727295
1733141831137675800,3.85367578125,-5.277419090270996,7.767987251281738,3.202843427658081
1733141831147740700,3.86374072265625,-5.2678422927856445,7.753622055053711,3.183689594268799
1733141831157806800,3.873806884765625,-5.200804710388184,7.753622055053711,3.207631826400757
1733141831167873300,3.883873291015625,-5.172074317932129,7.753622055053711,3.1453824043273926
1733141831177923300,3.89392333984375,-5.210381507873535,7.753622055053711,3.0591912269592285
1733141831187921000,3.9039208984375,-5.200804710388184,7.767987251281738,3.030460834503174
1733141831197921800,3.913921875,-5.138555526733398,7.77756404876709,3.0591912269592285
1733141831207927800,3.923927734375,-5.123591423034668,7.782352447509766,3.0974984169006348
1733141831217940000,3.93393994140625,-5.133767127990723,7.787140846252441,3.111863613128662
1733141831227959300,3.943959228515625,-5.167285919189453,7.791929244995117,3.1501708030700684
1733141831237986600,3.953986572265625,-5.1816511154174805,7.782352447509766,3.1932666301727295
1733141831248021800,3.964021728515625,-5.172074317932129,7.77756404876709,3.250727415084839
1733141831258065000,3.97406494140625,-5.109226226806641,7.753622055053711,3.22678542137146
1733141831268115500,3.984115478515625,-5.027823448181152,7.772775650024414,3.154959201812744
1733141831278168300,3.994168212890625,-5.032611846923828,7.801506042480469,3.049614429473877
1733141831288227600,4.0042275390625,-5.066130638122559,7.839813232421875,3.0113072395324707
1733141831298292200,4.014292236328125,-5.143343925476074,7.863755702972412,3.0113072395324707
1733141831308345600,4.024345703125,-5.191227912902832,7.868544101715088,3.0160956382751465
1733141831318403600,4.034403564453125,-5.186439514160156,7.8781208992004395,3.0352492332458496
1733141831328464600,4.044464599609375,-5.032611846923828,7.8781208992004395,3.135805606842041
1733141831338528500,4.054528564453125,-4.869806289672852,7.873332500457764,3.2172086238861084
1733141831348594000,4.064593994140625,-4.869806289672852,7.863755702972412,3.245939016342163
1733141831358554400,4.074554443359375,-4.999093055725098,7.820659637451172,3.269881010055542
1733141831368522800,4.084522705078125,-5.133767127990723,7.801506042480469,3.2842462062835693
1733141831378501600,4.094501708984375,-5.253477096557617,7.81108283996582,3.207631826400757
1733141831388493300,4.104493408203125,-5.258265495300293,7.820659637451172,3.183689594268799
1733141831398499300,4.114499267578125,-5.152920722961426,7.815871238708496,3.207631826400757
1733141831408515600,4.124515625,-5.070919036865234,7.801506042480469,3.207631826400757
1733141831418547200,4.134547119140625,-5.0900726318359375,7.791929244995117,3.183689594268799
1733141831428594400,4.144594482421875,-5.128978729248047,7.801506042480469,3.15974760055542
1733141831438651600,4.154651611328125,-5.123591423034668,7.796717643737793,3.1645359992980957
1733141831448722200,4.16472216796875,-5.133767127990723,7.796717643737793,3.1884782314300537
1733141831458799900,4.1747998046875,-5.123591423034668,7.791929244995117,3.1693243980407715
1733141831468887800,4.1848876953125,-5.061342239379883,7.8062944412231445,3.1645359992980957
1733141831478978800,4.194978759765625,-5.056553840637207,7.825448036193848,3.1501708030700684
1733141831489071600,4.205071533203125,-5.143343925476074,7.825448036193848,3.1310172080993652
1733141831499168300,4.215168212890625,-5.196016311645508,7.8062944412231445,3.1453824043273926
1733141831509179100,4.22517919921875,-5.186439514160156,7.8062944412231445,3.135805606842041
1733141831519196200,4.235196044921875,-5.114014625549316,7.825448036193848,3.1501708030700684
1733141831529220000,4.24522021484375,-5.061342239379883,7.858967304229736,3.1693243980407715
1733141831539246300,4.255246337890625,-5.037400245666504,7.8781208992004395,3.1884782314300537
1733141831549280300,4.2652802734375,-5.023035049438477,7.897274494171143,3.202843427658081
1733141831559317000,4.27531689453125,-5.04218864440918,7.892486095428467,3.265092611312866
1733141831569361700,4.285361572265625,-5.080495834350586,7.849390506744385,3.2411506175994873
1733141831579414000,4.2954140625,-5.162497520446777,7.796717643737793,3.1310172080993652
1733141831589468000,4.305468017578125,-5.219958305358887,7.7631988525390625,3.1022868156433105
1733141831599528000,4.31552783203125,-5.2247467041015625,7.744045257568359,3.1310172080993652
1733141831609588200,4.325588134765625,-5.229535102844238,7.767987251281738,3.135805606842041
1733141831619652900,4.33565283203125,-5.210381507873535,7.801506042480469,3.1741127967834473
1733141831629720800,4.345720947265625,-5.186439514160156,7.815871238708496,3.1884782314300537
1733141831639721200,4.35572119140625,-5.162497520446777,7.830236434936523,3.1693243980407715
1733141831649727700,4.365727783203125,-5.109226226806641,7.839813232421875,3.1645359992980957
1733141831659737000,4.375737060546875,-5.066130638122559,7.825448036193848,3.1501708030700684
1733141831669755400,4.38575537109375,-5.07570743560791,7.820659637451172,3.140594005584717
1733141831679778000,4.395778076171875,-5.080495834350586,7.815871238708496,3.1453824043273926
1733141831689806000,4.40580615234375,-5.080495834350586,7.835024833679199,3.1501708030700684
1733141831699844400,4.41584423828125,-5.051765441894531,7.863755702972412,3.1310172080993652
1733141831709887700,4.4258876953125,-5.018246650695801,7.863755702972412,3.0974984169006348
1733141831719940900,4.43594091796875,-5.04218864440918,7.8541789054870605,3.0400376319885254
1733141831730003000,4.4460029296875,-5.070919036865234,7.830236434936523,3.0160956382751465
1733141831740072000,4.456072021484375,-5.109226226806641,7.815871238708496,3.030460834503174
1733141831750147000,4.46614697265625,-5.143343925476074,7.796717643737793,3.087921619415283
1733141831760227000,4.47622705078125,-5.167285919189453,7.787140846252441,3.154959201812744
1733141831770310100,4.48631005859375,-5.162497520446777,7.787140846252441,3.1741127967834473
1733141831780394500,4.49639453125,-5.2247467041015625,7.81108283996582,3.135805606842041
1733141831790466600,4.506466552734375,-5.296572685241699,7.787140846252441,3.0974984169006348
1733141831800508700,4.5165087890625,-5.286995887756348,7.758410453796387,3.0831332206726074
1733141831810429400,4.526429443359375,-5.258265495300293,7.705738067626953,3.025672435760498
1733141831820359700,4.536359619140625,-5.27263069152832,7.681796073913574,2.958634853363037
1733141831830303700,4.5463037109375,-5.2678422927856445,7.648277282714844,2.9921536445617676
1733141831840260400,4.55626025390625,-5.286995887756348,7.672219276428223,3.0400376319885254
1733141831850236700,4.566236572265625,-5.306149482727051,7.700949668884277,3.140594005584717
1733141831860230100,4.576230224609375,-5.258265495300293,7.729680061340332,3.207631826400757
1733141831870246400,4.586246337890625,-5.196016311645508,7.744045257568359,3.2124202251434326
1733141831880281000,4.596281005859375,-5.200804710388184,7.734468460083008,3.1741127967834473
1733141831890338600,4.606338623046875,-5.248688697814941,7.734468460083008,3.1310172080993652
1733141831900417300,4.616417236328125,-5.310937881469727,7.758410453796387,3.073556423187256
1733141831910515000,4.626514892578125,-5.282207489013672,7.782352447509766,3.044826030731201
1733141831920628500,4.63662841796875,-5.152920722961426,7.801506042480469,3.030460834503174
1733141831930749400,4.64674951171875,-5.07570743560791,7.8062944412231445,3.0400376319885254
1733141831940879000,4.656879150390625,-5.0469770431518555,7.835024833679199,3.0400376319885254
1733141831951014100,4.66701416015625,-5.018246650695801,7.835024833679199,3.049614429473877
1733141831961150000,4.67714990234375,-5.032611846923828,7.8541789054870605,3.1262288093566895
1733141831971217200,4.687217041015625,-5.094861030578613,7.849390506744385,3.1645359992980957
1733141831981258800,4.6972587890625,-5.162497520446777,7.825448036193848,3.178901195526123
1733141831991300600,4.707300537109375,-5.186439514160156,7.796717643737793,3.140594005584717
1733141832001342200,4.71734228515625,-5.219958305358887,7.787140846252441,3.087921619415283
1733141832011383800,4.7273837890625,-5.2247467041015625,7.782352447509766,3.0783448219299316
1733141832021425400,4.73742529296875,-5.282207489013672,7.767987251281738,3.0591912269592285
1733141832031346700,4.7473466796875,-5.27263069152832,7.744045257568359,3.0783448219299316
1733141832041277400,4.75727734375,-5.234323501586914,7.7201032638549805,3.092710018157959
1733141832051221800,4.7672216796875,-5.210381507873535,7.744045257568359,3.1453824043273926
1733141832061178600,4.7771787109375,-5.196016311645508,7.748833656311035,3.1741127967834473
1733141832071155200,4.7871552734375,-5.1816511154174805,7.744045257568359,3.1693243980407715
1733141832081153500,4.797153564453125,-5.162497520446777,7.758410453796387,3.1453824043273926
1733141832091173400,4.80717333984375,-5.196016311645508,7.772775650024414,3.1214404106140137
1733141832101210600,4.817210693359375,-5.215169906616211,7.787140846252441,3.0831332206726074
1733141832111270100,4.827270263671875,-5.2247467041015625,7.77756404876709,3.049614429473877
1733141832121350400,4.837350341796875,-5.210381507873535,7.772775650024414,3.087921619415283
1733141832131443700,4.847443603515625,-5.200804710388184,7.77756404876709,3.1262288093566895
1733141832141552600,4.857552734375,-5.186439514160156,7.772775650024414,3.1453824043273926
1733141832151674000,4.867674072265625,-5.196016311645508,7.7631988525390625,3.135805606842041
1733141832161799000,4.877798828125,-5.253477096557617,7.744045257568359,3.154959201812744
1733141832171929000,4.88792919921875,-5.286995887756348,7.739256858825684,3.140594005584717
1733141832181972200,4.89797216796875,-5.301361083984375,7.715314865112305,3.1453824043273926
1733141832192020000,4.90802001953125,-5.286995887756348,7.724891662597656,3.1453824043273926
1733141832202057200,4.91805712890625,-5.282207489013672,7.758410453796387,3.1022868156433105
1733141832212094700,4.9280947265625,-5.229535102844238,7.787140846252441,3.092710018157959
1733141832222137000,4.93813720703125,-5.118803024291992,7.8062944412231445,3.116652011871338
1733141832232179700,4.9481796875,-5.070919036865234,7.820659637451172,3.0974984169006348
1733141832242227000,4.95822705078125,-5.118803024291992,7.796717643737793,3.0783448219299316
1733141832252278800,4.96827880859375,-5.186439514160156,7.8062944412231445,3.030460834503174
1733141832262333400,4.97833349609375,-5.172074317932129,7.782352447509766,3.044826030731201
1733141832272391400,4.988391357421875,-5.118803024291992,7.767987251281738,3.087921619415283
1733141832282451700,4.99845166015625,-5.172074317932129,7.772775650024414,3.0831332206726074
1733141832292512000,5.008511962890625,-5.253477096557617,7.748833656311035,3.0783448219299316
1733141832302473500,5.018473388671875,-5.291784286499023,7.739256858825684,3.1022868156433105
1733141832312438300,5.028438232421875,-5.277419090270996,7.787140846252441,3.135805606842041
1733141832322414000,5.0384140625,-5.2247467041015625,7.8062944412231445,3.1980550289154053
1733141832332398300,5.0483984375,-5.143343925476074,7.791929244995117,3.207631826400757
1733141832342397400,5.0583974609375,-5.0900726318359375,7.787140846252441,3.15974760055542
1733141832352408000,5.068407958984375,-5.162497520446777,7.787140846252441,3.1262288093566895
1733141832362436000,5.07843603515625,-5.277419090270996,7.791929244995117,3.0783448219299316
1733141832372476000,5.088475830078125,-5.291784286499023,7.791929244995117,3.0831332206726074
1733141832382532400,5.098532470703125,-5.219958305358887,7.801506042480469,3.0783448219299316
1733141832392599000,5.10859912109375,-5.167285919189453,7.791929244995117,3.092710018157959
1733141832402679600,5.118679443359375,-5.094861030578613,7.791929244995117,3.111863613128662
1733141832412767000,5.12876708984375,-5.0900726318359375,7.791929244995117,3.073556423187256
1733141832422859500,5.138859619140625,-5.123591423034668,7.787140846252441,3.044826030731201
1733141832432959700,5.148959716796875,-5.109226226806641,7.782352447509766,3.0591912269592285
1733141832443064300,5.159064208984375,-5.0469770431518555,7.782352447509766,3.111863613128662
1733141832453099000,5.16909912109375,-5.07570743560791,7.787140846252441,3.116652011871338
1733141832463138800,5.179138916015625,-5.133767127990723,7.8062944412231445,3.1214404106140137
1733141832473183500,5.18918359375,-5.14813232421875,7.830236434936523,3.1310172080993652
1733141832483232800,5.199232666015625,-5.186439514160156,7.835024833679199,3.135805606842041
1733141832493286000,5.209285888671875,-5.234323501586914,7.835024833679199,3.140594005584717
1733141832503342800,5.2193427734375,-5.196016311645508,7.835024833679199,3.15974760055542
1733141832513402400,5.22940234375,-5.085284233093262,7.830236434936523,3.178901195526123
1733141832523463700,5.239463623046875,-5.07570743560791,7.830236434936523,3.1645359992980957
1733141832533526300,5.2495263671875,-5.133767127990723,7.815871238708496,3.1262288093566895
1733141832543589000,5.259589111328125,-5.176862716674805,7.787140846252441,3.0974984169006348
1733141832553636900,5.269636962890625,-5.2247467041015625,7.791929244995117,3.0974984169006348
1733141832563644400,5.27964453125,-5.229535102844238,7.801506042480469,3.1214404106140137
1733141832573654800,5.28965478515625,-5.248688697814941,7.820659637451172,3.183689594268799
1733141832583668700,5.299668701171875,-5.258265495300293,7.844601631164551,3.1932666301727295
1733141832593687800,5.309687744140625,-5.263053894042969,7.858967304229736,3.202843427658081
1733141832603707400,5.319707275390625,-5.167285919189453,7.849390506744385,3.2363622188568115
1733141832613733400,5.3297333984375,-5.114014625549316,7.839813232421875,3.2363622188568115
1733141832623766000,5.33976611328125,-5.094861030578613,7.839813232421875,3.207631826400757
1733141832633805600,5.3498056640625,-5.070919036865234,7.825448036193848,3.15974760055542
1733141832643851500,5.3598515625,-5.080495834350586,7.787140846252441,3.1070752143859863
1733141832653904000,5.36990380859375,-5.128978729248047,7.772775650024414,3.0591912269592285
1733141832663961600,5.379961669921875,-5.157709121704102,7.801506042480469,3.0208840370178223
1733141832674024200,5.390024169921875,-5.172074317932129,7.801506042480469,3.006518840789795
1733141832684090400,5.40009033203125,-5.14813232421875,7.815871238708496,3.0160956382751465
1733141832694158800,5.410158935546875,-5.066130638122559,7.849390506744385,3.0591912269592285
1733141832704228900,5.420228759765625,-5.023035049438477,7.868544101715088,3.1070752143859863
1733141832714184200,5.43018408203125,-5.094861030578613,7.882909297943115,3.1214404106140137
1733141832724142800,5.440142822265625,-5.167285919189453,7.873332500457764,3.111863613128662
1733141832734112800,5.45011279296875,-5.080495834350586,7.849390506744385,3.1453824043273926
1733141832744096800,5.4600966796875,-5.003881454467773,7.815871238708496,3.1453824043273926
1733141832754096400,5.470096435546875,-5.037400245666504,7.791929244995117,3.1022868156433105
1733141832764110800,5.48011083984375,-5.152920722961426,7.7631988525390625,3.0831332206726074
1733141832774139600,5.4901396484375,-5.253477096557617,7.767987251281738,3.116652011871338
1733141832784180500,5.500180419921875,-5.23911190032959,7.767987251281738,3.1693243980407715
1733141832794233300,5.5102333984375,-5.094861030578613,7.772775650024414,3.2172086238861084
1733141832804297200,5.520297119140625,-5.023035049438477,7.772775650024414,3.1932666301727295
1733141832814370600,5.53037060546875,-5.070919036865234,7.758410453796387,3.135805606842041
1733141832824451800,5.540451904296875,-5.191227912902832,7.772775650024414,3.1070752143859863
1733141832834539000,5.5505390625,-5.2678422927856445,7.791929244995117,3.087921619415283
1733141832844634400,5.56063427734375,-5.210381507873535,7.820659637451172,3.116652011871338
1733141832854735000,5.570735107421875,-5.109226226806641,7.825448036193848,3.1310172080993652
1733141832864809200,5.580809326171875,-5.085284233093262,7.8062944412231445,3.116652011871338
1733141832874873000,5.590873046875,-5.099649429321289,7.787140846252441,3.0783448219299316
1733141832884891100,5.60089111328125,-5.114014625549316,7.782352447509766,3.087921619415283
1733141832894910000,5.610909912109375,-5.191227912902832,7.772775650024414,3.06876802444458
1733141832904930800,5.620930908203125,-5.248688697814941,7.7631988525390625,3.0591912269592285
1733141832914954000,5.6309541015625,-5.2678422927856445,7.772775650024414,3.06876802444458
1733141832924985000,5.640985107421875,-5.23911190032959,7.782352447509766,3.0831332206726074
1733141832935020800,5.651020751953125,-5.176862716674805,7.8062944412231445,3.0831332206726074
1733141832945060000,5.66106005859375,-5.138555526733398,7.815871238708496,3.0831332206726074
1733141832955103000,5.67110302734375,-5.123591423034668,7.81108283996582,3.0831332206726074
1733141832965148700,5.681148681640625,-5.118803024291992,7.787140846252441,3.0974984169006348
1733141832975197400,5.691197509765625,-5.0900726318359375,7.801506042480469,3.1262288093566895
1733141832985253600,5.701253662109375,-5.114014625549316,7.801506042480469,3.1310172080993652
1733141832995315200,5.711315185546875,-5.162497520446777,7.796717643737793,3.1310172080993652
1733141833005377000,5.721376953125,-5.152920722961426,7.796717643737793,3.1453824043273926
1733141833015434000,5.73143408203125,-5.152920722961426,7.796717643737793,3.1214404106140137
1733141833025475600,5.7414755859375,-5.191227912902832,7.835024833679199,3.1022868156433105
1733141833035516400,5.751516357421875,-5.215169906616211,7.839813232421875,3.111863613128662
1733141833045557200,5.76155712890625,-5.219958305358887,7.830236434936523,3.135805606842041
1733141833055598000,5.77159814453125,-5.23911190032959,7.815871238708496,3.140594005584717
1733141833065639200,5.78163916015625,-5.200804710388184,7.815871238708496,3.1932666301727295
1733141833075680300,5.79168017578125,-5.143343925476074,7.8062944412231445,3.183689594268799
1733141833085721600,5.8017216796875,-5.152920722961426,7.8062944412231445,3.1453824043273926
1733141833095763200,5.81176318359375,-5.118803024291992,7.8062944412231445,3.092710018157959
1733141833105809400,5.821809326171875,-5.085284233093262,7.796717643737793,3.06876802444458
1733141833115850800,5.831850830078125,-5.118803024291992,7.791929244995117,3.0544028282165527
1733141833125896400,5.841896484375,-5.1816511154174805,7.791929244995117,3.044826030731201
1733141833135935200,5.851935302734375,-5.229535102844238,7.782352447509766,3.044826030731201
1733141833145978600,5.861978515625,-5.2247467041015625,7.787140846252441,3.0544028282165527
1733141833156020000,5.87202001953125,-5.138555526733398,7.815871238708496,3.1070752143859863
1733141833166066000,5.88206591796875,-5.066130638122559,7.820659637451172,3.1310172080993652
1733141833176100600,5.8921005859375,-5.070919036865234,7.844601631164551,3.087921619415283
1733141833186135300,5.90213525390625,-5.109226226806641,7.844601631164551,3.049614429473877
1733141833196170500,5.91217041015625,-5.070919036865234,7.815871238708496,3.087921619415283
1733141833206208800,5.922208740234375,-5.051765441894531,7.801506042480469,3.135805606842041
1733141833216247600,5.93224755859375,-5.157709121704102,7.782352447509766,3.092710018157959
1733141833226292200,5.942292236328125,-5.263053894042969,7.7631988525390625,3.087921619415283
1733141833236337400,5.95233740234375,-5.387552261352539,7.791929244995117,3.092710018157959
1733141833246388000,5.962387939453125,-5.392340660095215,7.81108283996582,3.1453824043273926
1733141833256443100,5.972443115234375,-5.234323501586914,7.815871238708496,3.1645359992980957
1733141833266502100,5.982502197265625,-5.027823448181152,7.8062944412231445,3.154959201812744
1733141833276564200,5.992564208984375,-4.98472785949707,7.801506042480469,3.092710018157959
1733141833286560500,6.002560546875,-5.07570743560791,7.801506042480469,3.0400376319885254
1733141833296563200,6.012563232421875,-5.176862716674805,7.8062944412231445,3.0352492332458496
1733141833306573800,6.02257373046875,-5.2247467041015625,7.791929244995117,3.0639796257019043
1733141833316593200,6.03259326171875,-5.210381507873535,7.753622055053711,3.1022868156433105
1733141833326619400,6.042619384765625,-5.229535102844238,7.748833656311035,3.0831332206726074
1733141833336655000,6.052655029296875,-5.282207489013672,7.782352447509766,3.0591912269592285
1733141833346700500,6.062700439453125,-5.320514678955078,7.887697696685791,3.0160956382751465
1733141833356755000,6.0727548828125,-5.392340660095215,7.993042469024658,2.9299042224884033
1733141833366816800,6.082816650390625,-5.425859451293945,8.031349182128906,2.963423252105713
1733141833376885800,6.0928857421875,-5.3779754638671875,8.007407188415527,3.1070752143859863
1733141833386960600,6.102960693359375,-5.248688697814941,7.9643120765686035,3.245939016342163
1733141833397039400,6.113039306640625,-5.157709121704102,7.906851291656494,3.3033998012542725
1733141833407120600,6.12312060546875,-5.114014625549316,7.825448036193848,3.2555158138275146
1733141833417202700,6.13320263671875,-5.07570743560791,7.744045257568359,3.1741127967834473
1733141833427240000,6.143239990234375,-5.051765441894531,7.609371662139893,3.1214404106140137
1733141833437278500,6.153278564453125,-5.085284233093262,7.513603687286377,3.1262288093566895
1733141833447318000,6.163318115234375,-5.143343925476074,7.451354026794434,3.0974984169006348
1733141833457358800,6.17335888671875,-5.2247467041015625,7.417835235595703,3.111863613128662
1733141833467310300,6.183310302734375,-5.258265495300293,7.451354026794434,3.073556423187256
1733141833477270000,6.19327001953125,-5.277419090270996,7.508815288543701,3.025672435760498
1733141833487241200,6.2032412109375,-5.282207489013672,7.5902180671691895,3.001730442047119
1733141833497226200,6.213226318359375,-5.306149482727051,7.643488883972168,3.0400376319885254
1733141833507226600,6.2232265625,-5.33009147644043,7.681796073913574,3.0783448219299316
1733141833517238500,6.233238525390625,-5.358821868896484,7.68658447265625,3.135805606842041
1733141833527267600,6.243267578125,-5.406705856323242,7.744045257568359,3.1741127967834473
1733141833537313800,6.253313720703125,-5.430647850036621,7.758410453796387,3.250727415084839
1733141833547376000,6.263376220703125,-5.4210710525512695,7.8062944412231445,3.2603042125701904
1733141833557453000,6.273453125,-5.344456672668457,7.858967304229736,3.2411506175994873
1733141833567542500,6.28354248046875,-5.248688697814941,7.8781208992004395,3.2315738201141357
1733141833577642500,6.293642578125,-5.176862716674805,7.887697696685791,3.2363622188568115
1733141833587745000,6.3037451171875,-5.0900726318359375,7.8781208992004395,3.2124202251434326
1733141833597852700,6.313852783203125,-5.013458251953125,7.882909297943115,3.1501708030700684
1733141833607962400,6.32396240234375,-4.95120906829834,7.887697696685791,3.0783448219299316
1733141833618055200,6.33405517578125,-4.917690277099609,7.887697696685791,3.0113072395324707
1733141833628097000,6.344096923828125,-4.960785865783691,7.8541789054870605,2.982576847076416
1733141833638138600,6.354138671875,-5.080495834350586,7.849390506744385,2.9538464546203613
1733141833648180500,6.364180419921875,-5.162497520446777,7.825448036193848,2.9538464546203613
1733141833658222000,6.37422216796875,-5.167285919189453,7.782352447509766,3.001730442047119
1733141833668263700,6.384263671875,-5.157709121704102,7.782352447509766,3.044826030731201
1733141833678305300,6.39430517578125,-5.167285919189453,7.77756404876709,3.0783448219299316
1733141833688347100,6.40434716796875,-5.234323501586914,7.77756404876709,3.111863613128662
1733141833698388700,6.414388671875,-5.315726280212402,7.835024833679199,3.1645359992980957
1733141833708430600,6.4244306640625,-5.373187065124512,7.892486095428467,3.2124202251434326
1733141833718448400,6.434448486328125,-5.301361083984375,7.897274494171143,3.2363622188568115
1733141833728468000,6.444468017578125,-5.1816511154174805,7.882909297943115,3.221997022628784
1733141833738490600,6.45449072265625,-5.133767127990723,7.892486095428467,3.178901195526123
1733141833748516600,6.4645166015625,-5.099649429321289,7.9212164878845215,3.092710018157959
1733141833758546200,6.474546142578125,-5.008669853210449,7.940370082855225,3.0113072395324707
1733141833768561000,6.484560791015625,-4.874594688415527,7.954735279083252,2.9299042224884033
1733141833778581200,6.494581298828125,-4.807557106018066,7.940370082855225,2.9059622287750244
1733141833788608300,6.504608154296875,-4.836287498474121,7.887697696685791,2.9059622287750244
1733141833798642000,6.514641845703125,-4.927267074584961,7.787140846252441,2.9059622287750244
1733141833808682500,6.5246826171875,-5.023035049438477,7.6530656814575195,2.896385431289673
1733141833818729700,6.534729736328125,-5.133767127990723,7.580641269683838,2.8341362476348877
1733141833828783000,6.544783203125,-5.27263069152832,7.571064472198486,2.8341362476348877
1733141833838842000,6.554842041015625,-5.33009147644043,7.6530656814575195,2.867655038833618
1733141833848905500,6.564905517578125,-5.301361083984375,7.753622055053711,2.958634853363037
1733141833858972200,6.57497216796875,-5.219958305358887,7.8541789054870605,3.0352492332458496
1733141833869041400,6.58504150390625,-5.1816511154174805,7.930793285369873,3.0208840370178223
1733141833879111700,6.595111572265625,-5.219958305358887,7.935581684112549,2.9777884483337402
1733141833889181000,6.605180908203125,-5.315726280212402,7.892486095428467,2.915539026260376
1733141833899223000,6.61522314453125,-5.425859451293945,7.849390506744385,2.9107506275177
1733141833909265000,6.625264892578125,-5.478531837463379,7.81108283996582,2.9730000495910645
1733141833919306200,6.63530615234375,-5.468955039978027,7.81108283996582,3.044826030731201
1733141833929347600,6.64534765625,-5.435436248779297,7.825448036193848,3.0831332206726074
1733141833939270400,6.6552705078125,-5.387552261352539,7.825448036193848,3.0639796257019043
1733141833949203000,6.665202880859375,-5.315726280212402,7.835024833679199,3.0591912269592285
1733141833959148800,6.675148681640625,-5.282207489013672,7.815871238708496,3.0113072395324707
1733141833969107000,6.68510693359375,-5.258265495300293,7.787140846252441,2.9442696571350098
1733141833979084500,6.69508447265625,-5.291784286499023,7.753622055053711,2.891597032546997
1733141833989083400,6.70508349609375,-5.344456672668457,7.734468460083008,2.8628666400909424
1733141833999104800,6.715104736328125,-5.382763862609863,7.7201032638549805,2.8580782413482666
1733141834009148200,6.725148193359375,-5.401917457580566,7.739256858825684,2.8389246463775635
1733141834019213000,6.735213134765625,-5.354033470153809,7.753622055053711,2.8197710514068604
1733141834029297200,6.745297119140625,-5.325303077697754,7.753622055053711,2.7910406589508057
1733141834039398400,6.7553984375,-5.354033470153809,7.739256858825684,2.8006174564361572
1733141834049513500,6.765513427734375,-5.382763862609863,7.729680061340332,2.810194253921509
1733141834059639000,6.77563916015625,-5.411494255065918,7.710526466369629,2.8006174564361572
1733141834069766400,6.785766357421875,-5.368398666381836,7.758410453796387,2.7958290576934814
1733141834079897000,6.79589697265625,-5.291784286499023,7.791929244995117,2.824559450149536
1733141834090015000,6.806014892578125,-5.248688697814941,7.844601631164551,2.9251158237457275
1733141834100056600,6.816056640625,-5.14813232421875,7.873332500457764,2.982576847076416
1733141834110098400,6.826098388671875,-5.162497520446777,7.906851291656494,3.0160956382751465
1733141834120140000,6.83614013671875,-5.210381507873535,7.8781208992004395,3.0783448219299316
1733141834130181600,6.846181640625,-5.186439514160156,7.892486095428467,3.073556423187256
1733141834140223500,6.856223388671875,-5.200804710388184,7.902062892913818,3.0208840370178223
1733141834150265000,6.86626513671875,-5.138555526733398,7.892486095428467,2.915539026260376
1733141834160307000,6.876306884765625,-5.128978729248047,7.887697696685791,2.7958290576934814
1733141834170229200,6.886229248046875,-5.176862716674805,7.8781208992004395,2.7096378803253174
1733141834180161300,6.896161376953125,-5.200804710388184,7.863755702972412,2.743156671524048
1733141834190106600,6.906106689453125,-5.205593109130859,7.882909297943115,2.781463861465454
1733141834200068900,6.91606884765625,-5.172074317932129,7.849390506744385,2.848501443862915
1733141834210050300,6.92605029296875,-5.243900299072266,7.820659637451172,2.8772318363189697
1733141834220052700,6.936052734375,-5.339668273925781,7.8062944412231445,2.867655038833618
1733141834230077000,6.946076904296875,-5.392340660095215,7.77756404876709,2.8341362476348877
1733141834240123000,6.956122802734375,-5.349245071411133,7.7631988525390625,2.829347848892212
1733141834250189000,6.96618896484375,-5.243900299072266,7.758410453796387,2.8628666400909424
1733141834260274200,6.976274169921875,-5.133767127990723,7.767987251281738,2.872443437576294
1733141834270375400,6.98637548828125,-5.118803024291992,7.815871238708496,2.848501443862915
1733141834280490000,6.996489990234375,-5.172074317932129,7.844601631164551,2.805405855178833
1733141834290614300,7.0066142578125,-5.167285919189453,7.858967304229736,2.7958290576934814
1733141834300744700,7.01674462890625,-5.143343925476074,7.868544101715088,2.848501443862915
1733141834310877200,7.026877197265625,-5.07570743560791,7.902062892913818,2.9203274250030518
1733141834320973800,7.036973876953125,-5.018246650695801,7.935581684112549,2.963423252105713
1733141834331015700,7.047015625,-5.023035049438477,7.9643120765686035,2.9777884483337402
1733141834341057500,7.0570576171875,-5.0469770431518555,7.973888874053955,2.9682116508483887
1733141834351099400,7.067099365234375,-5.118803024291992,7.978677272796631,2.939481019973755
1733141834361140700,7.077140625,-5.196016311645508,7.9643120765686035,2.9203274250030518
1733141834371063300,7.087063232421875,-5.258265495300293,7.930793285369873,2.915539026260376
1733141834380995300,7.096995361328125,-5.310937881469727,7.897274494171143,2.8868086338043213
1733141834390941000,7.10694091796875,-5.2678422927856445,7.892486095428467,2.896385431289673
1733141834400903400,7.1169033203125,-5.186439514160156,7.882909297943115,2.915539026260376
1733141834410885400,7.126885498046875,-5.104437828063965,7.892486095428467,2.896385431289673
1733141834420888000,7.13688818359375,-5.051765441894531,7.906851291656494,2.8437130451202393
1733141834430912500,7.14691259765625,-5.109226226806641,7.916428089141846,2.7910406589508057
1733141834440958500,7.15695849609375,-5.162497520446777,7.926004886627197,2.7958290576934814
1733141834451024600,7.167024658203125,-5.191227912902832,7.940370082855225,2.8149826526641846
1733141834461109800,7.17710986328125,-5.200804710388184,7.959523677825928,2.7958290576934814
1733141834471211000,7.1872109375,-5.152920722961426,7.983465671539307,2.805405855178833
1733141834481325000,7.197324951171875,-5.0900726318359375,7.993042469024658,2.8197710514068604
1733141834491444500,7.207444580078125,-5.109226226806641,7.973888874053955,2.824559450149536
1733141834501570000,7.217570068359375,-5.176862716674805,7.940370082855225,2.8437130451202393
1733141834511645700,7.227645751953125,-5.243900299072266,7.902062892913818,2.8868086338043213
1733141834521724700,7.237724609375,-5.296572685241699,7.882909297943115,2.934692621231079
1733141834531731000,7.24773095703125,-5.291784286499023,7.873332500457764,2.9442696571350098
1733141834541743000,7.2577431640625,-5.2247467041015625,7.868544101715088,2.9299042224884033
1733141834551758000,7.267758056640625,-5.167285919189453,7.863755702972412,2.8868086338043213
1733141834561780700,7.27778076171875,-5.186439514160156,7.873332500457764,2.8341362476348877
1733141834571812000,7.28781201171875,-5.23911190032959,7.887697696685791,2.781463861465454
1733141834581852000,7.297851806640625,-5.258265495300293,7.897274494171143,2.810194253921509
1733141834591900200,7.307900146484375,-5.186439514160156,7.902062892913818,2.8772318363189697
1733141834601951000,7.317950927734375,-5.152920722961426,7.863755702972412,2.872443437576294
1733141834612009500,7.328009521484375,-5.1816511154174805,7.8062944412231445,2.829347848892212
1733141834622069000,7.338069091796875,-5.277419090270996,7.767987251281738,2.7718870639801025
1733141834632134400,7.348134521484375,-5.392340660095215,7.772775650024414,2.781463861465454
1733141834642204000,7.358203857421875,-5.358821868896484,7.767987251281738,2.8628666400909424
1733141834652276500,7.3682763671875,-5.243900299072266,7.81108283996582,2.896385431289673
1733141834662350800,7.378350830078125,-5.094861030578613,7.815871238708496,2.9490580558776855
1733141834672425500,7.388425537109375,-5.104437828063965,7.825448036193848,2.9299042224884033
1733141834682476000,7.39847607421875,-5.27263069152832,7.815871238708496,2.824559450149536
1733141834692518100,7.40851806640625,-5.440224647521973,7.825448036193848,2.714426279067993
1733141834702559200,7.418559326171875,-5.445013046264648,7.796717643737793,2.6856956481933594
1733141834712515300,7.428515380859375,-5.387552261352539,7.77756404876709,2.714426279067993
1733141834722478000,7.43847802734375,-5.3348798751831055,7.77756404876709,2.757521867752075
1733141834732446000,7.448446044921875,-5.33009147644043,7.77756404876709,2.7910406589508057
1733141834742426000,7.458426025390625,-5.325303077697754,7.801506042480469,2.8149826526641846
1733141834752416000,7.468416015625,-5.282207489013672,7.830236434936523,2.853289842605591
1733141834762421800,7.478421875,-5.2247467041015625,7.849390506744385,2.8772318363189697
1733141834772439800,7.488439697265625,-5.191227912902832,7.882909297943115,2.9107506275177
1733141834782475300,7.498475341796875,-5.205593109130859,7.906851291656494,2.872443437576294
1733141834792522500,7.5085224609375,-5.23911190032959,7.902062892913818,2.8389246463775635
1733141834802586400,7.51858642578125,-5.234323501586914,7.882909297943115,2.829347848892212
1733141834812660000,7.528659912109375,-5.277419090270996,7.863755702972412,2.7958290576934814
1733141834822746600,7.53874658203125,-5.310937881469727,7.858967304229736,2.810194253921509
1733141834832839000,7.5488388671875,-5.296572685241699,7.868544101715088,2.853289842605591
1733141834842935000,7.55893505859375,-5.277419090270996,7.873332500457764,2.848501443862915
1733141834853037300,7.569037353515625,-5.234323501586914,7.873332500457764,2.8437130451202393
1733141834863143000,7.579142822265625,-5.176862716674805,7.8781208992004395,2.8580782413482666
1733141834873147600,7.589147705078125,-5.162497520446777,7.887697696685791,2.8437130451202393
1733141834883158800,7.59915869140625,-5.23911190032959,7.902062892913818,2.8197710514068604
1733141834893177000,7.609177001953125,-5.320514678955078,7.91163969039917,2.8006174564361572
1733141834903203000,7.619203125,-5.382763862609863,7.892486095428467,2.8197710514068604
1733141834913237500,7.629237548828125,-5.406705856323242,7.8541789054870605,2.8197710514068604
1733141834923280000,7.63927978515625,-5.392340660095215,7.8062944412231445,2.805405855178833
1733141834933330000,7.649329833984375,-5.387552261352539,7.772775650024414,2.810194253921509
1733141834943387400,7.659387451171875,-5.33009147644043,7.787140846252441,2.8341362476348877
1733141834953451000,7.669450927734375,-5.234323501586914,7.815871238708496,2.848501443862915
1733141834963514600,7.6795146484375,-5.14813232421875,7.835024833679199,2.8437130451202393
1733141834973582800,7.689582763671875,-5.123591423034668,7.835024833679199,2.8006174564361572
1733141834983654000,7.69965380859375,-5.1816511154174805,7.835024833679199,2.7335798740386963
1733141834993649000,7.70964892578125,-5.2678422927856445,7.839813232421875,2.676118850708008
1733141835003650300,7.719650390625,-5.315726280212402,7.830236434936523,2.7096378803253174
1733141835013659600,7.72965966796875,-5.349245071411133,7.830236434936523,2.7718870639801025
1733141835023678000,7.739677978515625,-5.416282653808594,7.825448036193848,2.824559450149536
1733141835033706000,7.7497060546875,-5.468955039978027,7.863755702972412,2.829347848892212
1733141835043743500,7.759743408203125,-5.3779754638671875,7.902062892913818,2.8149826526641846
1733141835053790500,7.76979052734375,-5.215169906616211,7.91163969039917,2.810194253921509
1733141835063841500,7.779841552734375,-5.070919036865234,7.887697696685791,2.78625226020813
1733141835073896000,7.78989599609375,-5.085284233093262,7.796717643737793,2.7527334690093994
1733141835083958300,7.799958251953125,-5.248688697814941,7.787140846252441,2.690484046936035
1733141835094027300,7.81002734375,-5.315726280212402,7.787140846252441,2.7527334690093994
1733141835104101000,7.82010107421875,-5.215169906616211,7.791929244995117,2.853289842605591
1733141835114178800,7.8301787109375,-5.099649429321289,7.8062944412231445,2.915539026260376
1733141835124258800,7.8402587890625,-5.0469770431518555,7.849390506744385,2.8868086338043213
1733141835134339000,7.850339111328125,-5.085284233093262,7.897274494171143,2.8389246463775635
1733141835144272600,7.860272705078125,-5.157709121704102,7.9212164878845215,2.805405855178833
1733141835154215200,7.870215087890625,-5.176862716674805,7.935581684112549,2.810194253921509
1733141835164165600,7.88016552734375,-5.138555526733398,7.926004886627197,2.867655038833618
1733141835174127400,7.89012744140625,-5.109226226806641,7.91163969039917,2.9011738300323486
1733141835184104400,7.9001044921875,-5.104437828063965,7.906851291656494,2.9011738300323486
1733141835194097400,7.910097412109375,-5.123591423034668,7.897274494171143,2.8820202350616455
1733141835204108000,7.92010791015625,-5.1816511154174805,7.873332500457764,2.8628666400909424
1733141835214136300,7.93013623046875,-5.2247467041015625,7.873332500457764,2.829347848892212
1733141835224182300,7.940182373046875,-5.200804710388184,7.858967304229736,2.8149826526641846
1733141835234244900,7.950244873046875,-5.172074317932129,7.844601631164551,2.8197710514068604
1733141835244322800,7.96032275390625,-5.14813232421875,7.839813232421875,2.8149826526641846
1733141835254414000,7.9704140625,-5.114014625549316,7.839813232421875,2.8389246463775635
1733141835264518400,7.980518310546875,-5.123591423034668,7.839813232421875,2.8389246463775635
1733141835274631700,7.990631591796875,-5.191227912902832,7.825448036193848,2.829347848892212
1733141835284749600,8.00074951171875,-5.196016311645508,7.825448036193848,2.8389246463775635
1733141835294868700,8.01086865234375,-5.1816511154174805,7.839813232421875,2.853289842605591
1733141835304939300,8.020939208984375,-5.200804710388184,7.835024833679199,2.8580782413482666
1733141835314981400,8.0309814453125,-5.2247467041015625,7.815871238708496,2.853289842605591
1733141835325023200,8.041023193359376,-5.243900299072266,7.825448036193848,2.824559450149536
1733141835335065000,8.051065185546875,-5.296572685241699,7.849390506744385,2.8197710514068604
1733141835345108700,8.061108642578125,-5.315726280212402,7.8541789054870605,2.829347848892212
1733141835355148300,8.071148193359376,-5.296572685241699,7.873332500457764,2.8341362476348877
1733141835365189000,8.081189208984375,-5.243900299072266,7.858967304229736,2.8772318363189697
1733141835375234800,8.09123486328125,-5.219958305358887,7.844601631164551,2.9107506275177
1733141835385284900,8.101284912109374,-5.200804710388184,7.868544101715088,2.9203274250030518
1733141835395338800,8.1113388671875,-5.248688697814941,7.8781208992004395,2.9107506275177
1733141835405396500,8.121396484375,-5.277419090270996,7.8781208992004395,2.896385431289673
1733141835415454200,8.1314541015625,-5.248688697814941,7.882909297943115,2.8628666400909424
1733141835425452300,8.141452392578126,-5.215169906616211,7.8781208992004395,2.8341362476348877
1733141835435451600,8.15145166015625,-5.219958305358887,7.858967304229736,2.7910406589508057
1733141835445453800,8.161453857421876,-5.196016311645508,7.863755702972412,2.7670986652374268
1733141835455460400,8.17146044921875,-5.1816511154174805,7.8781208992004395,2.7718870639801025
1733141835465472500,8.181472412109375,-5.176862716674805,7.8541789054870605,2.78625226020813
1733141835475491000,8.191490966796875,-5.118803024291992,7.839813232421875,2.8437130451202393
1733141835485517000,8.20151708984375,-5.157709121704102,7.844601631164551,2.853289842605591
1733141835495550500,8.211550537109375,-5.27263069152832,7.844601631164551,2.8580782413482666
1733141835505596200,8.22159619140625,-5.248688697814941,7.844601631164551,2.9011738300323486
1733141835515648800,8.231648681640625,-5.200804710388184,7.8781208992004395,2.9059622287750244
1733141835525712600,8.241712646484375,-5.234323501586914,7.868544101715088,2.915539026260376
1733141835535781000,8.251781005859375,-5.291784286499023,7.835024833679199,2.9107506275177
1733141835545858000,8.261858154296876,-5.373187065124512,7.839813232421875,2.8820202350616455
1733141835555937000,8.27193701171875,-5.339668273925781,7.844601631164551,2.9299042224884033
1733141835566021000,8.282021240234375,-5.186439514160156,7.849390506744385,2.9442696571350098
1733141835576066300,8.29206640625,-5.018246650695801,7.849390506744385,2.9442696571350098
1733141835586116000,8.3021162109375,-4.9799394607543945,7.849390506744385,2.939481019973755
1733141835596149500,8.3121494140625,-5.056553840637207,7.844601631164551,2.9538464546203613
1733141835606183400,8.322183349609375,-5.152920722961426,7.906851291656494,2.896385431289673
1733141835616218000,8.332218017578125,-5.219958305358887,7.935581684112549,2.8389246463775635
1733141835626258200,8.342258056640626,-5.191227912902832,7.940370082855225,2.805405855178833
1733141835636299300,8.35229931640625,-5.128978729248047,7.930793285369873,2.824559450149536
1733141835646345500,8.362345458984375,-5.080495834350586,7.897274494171143,2.8868086338043213
1733141835656397000,8.37239697265625,-5.085284233093262,7.897274494171143,2.958634853363037
1733141835666452700,8.38245263671875,-5.109226226806641,7.906851291656494,3.0113072395324707
1733141835676483300,8.3924833984375,-5.0900726318359375,7.935581684112549,3.0208840370178223
1733141835686519000,8.40251904296875,-5.0469770431518555,7.969100475311279,2.982576847076416
1733141835696559900,8.412559814453125,-5.0469770431518555,7.969100475311279,2.9203274250030518
1733141835706601000,8.42260107421875,-5.0900726318359375,7.959523677825928,2.9011738300323486
1733141835716647200,8.432647216796875,-5.114014625549316,7.935581684112549,2.8772318363189697
1733141835726698200,8.4426982421875,-5.167285919189453,7.906851291656494,2.8580782413482666
1733141835736753200,8.452753173828125,-5.2247467041015625,7.887697696685791,2.8341362476348877
1733141835746811600,8.462811767578126,-5.229535102844238,7.897274494171143,2.8389246463775635
1733141835756872700,8.472872802734376,-5.200804710388184,7.906851291656494,2.853289842605591
1733141835766935600,8.482935546875,-5.143343925476074,7.916428089141846,2.9011738300323486
1733141835776899800,8.49289990234375,-5.104437828063965,7.902062892913818,2.9203274250030518
1733141835786871800,8.502871826171875,-5.109226226806641,7.91163969039917,2.915539026260376
1733141835796854300,8.512854248046875,-5.152920722961426,7.91163969039917,2.9107506275177
1733141835806849000,8.52284912109375,-5.191227912902832,7.906851291656494,2.896385431289673
1733141835816857600,8.532857666015625,-5.2247467041015625,7.91163969039917,2.8868086338043213
1733141835826880500,8.542880615234376,-5.219958305358887,7.906851291656494,2.915539026260376
1733141835836918000,8.55291796875,-5.172074317932129,7.906851291656494,2.958634853363037
1733141835846965000,8.562965087890625,-5.118803024291992,7.902062892913818,2.982576847076416
1733141835857025500,8.573025634765624,-5.094861030578613,7.8781208992004395,2.934692621231079
1733141835867098400,8.583098388671875,-5.138555526733398,7.858967304229736,2.8628666400909424
1733141835877177000,8.593177001953125,-5.215169906616211,7.825448036193848,2.824559450149536
1733141835887264800,8.6032646484375,-5.301361083984375,7.801506042480469,2.824559450149536
1733141835897358800,8.61335888671875,-5.349245071411133,7.791929244995117,2.8389246463775635
1733141835907441400,8.62344140625,-5.349245071411133,7.782352447509766,2.853289842605591
1733141835917527000,8.633527099609376,-5.277419090270996,7.791929244995117,2.853289842605591
1733141835927614000,8.643614013671876,-5.1816511154174805,7.791929244995117,2.8389246463775635
1733141835937687000,8.65368701171875,-5.152920722961426,7.801506042480469,2.810194253921509
1733141835947731200,8.663731201171874,-5.219958305358887,7.820659637451172,2.757521867752075
1733141835957770500,8.6737705078125,-5.291784286499023,7.839813232421875,2.695272445678711
1733141835967810000,8.68381005859375,-5.243900299072266,7.830236434936523,2.7287914752960205
1733141835977849600,8.693849609375,-5.205593109130859,7.835024833679199,2.7240030765533447
1733141835987889700,8.7038896484375,-5.253477096557617,7.830236434936523,2.7527334690093994
1733141835997929700,8.7139296875,-5.36361026763916,7.815871238708496,2.8389246463775635
1733141836007858700,8.723858642578126,-5.483320236206055,7.844601631164551,2.896385431289673
1733141836017796900,8.733796875,-5.478531837463379,7.863755702972412,2.9538464546203613
1733141836027748000,8.743748046875,-5.320514678955078,7.858967304229736,2.9538464546203613
1733141836037715500,8.753715576171874,-5.152920722961426,7.8541789054870605,2.896385431289673
1733141836047701200,8.763701171875,-5.114014625549316,7.858967304229736,2.848501443862915
1733141836057707300,8.773707275390626,-5.2247467041015625,7.858967304229736,2.781463861465454
1733141836067733800,8.783733642578126,-5.382763862609863,7.8541789054870605,2.7287914752960205
1733141836077780700,8.79378076171875,-5.430647850036621,7.849390506744385,2.7287914752960205
1733141836087847200,8.80384716796875,-5.3348798751831055,7.8541789054870605,2.7670986652374268
1733141836097931000,8.813930908203124,-5.215169906616211,7.844601631164551,2.810194253921509
1733141836108025300,8.824025390625,-5.133767127990723,7.835024833679199,2.8389246463775635
1733141836118132500,8.834132568359376,-5.128978729248047,7.839813232421875,2.8580782413482666
1733141836128249000,8.8442490234375,-5.1816511154174805,7.839813232421875,2.8628666400909424
1733141836138371800,8.854371826171874,-5.243900299072266,7.839813232421875,2.8341362476348877
1733141836148497400,8.864497314453125,-5.291784286499023,7.844601631164551,2.7958290576934814
1733141836158603800,8.874603759765625,-5.286995887756348,7.844601631164551,2.7527334690093994
1733141836168645600,8.884645751953125,-5.277419090270996,7.839813232421875,2.7670986652374268
1733141836178687200,8.894687255859376,-5.234323501586914,7.849390506744385,2.7910406589508057
1733141836188729000,8.90472900390625,-5.2678422927856445,7.839813232421875,2.810194253921509
1733141836198770700,8.914770751953125,-5.325303077697754,7.815871238708496,2.8197710514068604
1733141836208691700,8.924691650390624,-5.339668273925781,7.815871238708496,2.8628666400909424
1733141836218622500,8.93462255859375,-5.282207489013672,7.791929244995117,2.9059622287750244
1733141836228567000,8.944567138671875,-5.234323501586914,7.77756404876709,2.848501443862915
1733141836238528500,8.954528564453126,-5.2678422927856445,7.77756404876709,2.7527334690093994
1733141836248504800,8.9645048828125,-5.296572685241699,7.796717643737793,2.738368272781372
1733141836258502700,8.974502685546875,-5.310937881469727,7.81108283996582,2.738368272781372
1733141836268523000,8.98452294921875,-5.315726280212402,7.825448036193848,2.762310266494751
1733141836278561000,8.99456103515625,-5.411494255065918,7.830236434936523,2.7479450702667236
1733141836288616000,9.004615966796875,-5.401917457580566,7.835024833679199,2.738368272781372
1733141836298691800,9.01469189453125,-5.339668273925781,7.8541789054870605,2.7527334690093994
1733141836308786000,9.024785888671875,-5.286995887756348,7.858967304229736,2.7718870639801025
1733141836318895600,9.0348955078125,-5.325303077697754,7.839813232421875,2.7479450702667236
1733141836329017900,9.045017822265624,-5.387552261352539,7.844601631164551,2.7096378803253174
1733141836339148300,9.055148193359376,-5.430647850036621,7.839813232421875,2.7096378803253174
1733141836349283600,9.06528369140625,-5.397129058837891,7.839813232421875,2.7479450702667236
1733141836359419600,9.075419677734375,-5.339668273925781,7.844601631164551,2.757521867752075
1733141836369479400,9.0854794921875,-5.2678422927856445,7.849390506744385,2.78625226020813
1733141836379402000,9.095402099609375,-5.1816511154174805,7.863755702972412,2.7910406589508057
1733141836389329200,9.1053291015625,-5.128978729248047,7.873332500457764,2.78625226020813
1733141836399270100,9.115270263671874,-5.205593109130859,7.868544101715088,2.7240030765533447
1733141836409228500,9.125228515625,-5.354033470153809,7.873332500457764,2.6665420532226562
1733141836419207200,9.135207275390625,-5.416282653808594,7.844601631164551,2.676118850708008
1733141836429207300,9.145207275390625,-5.349245071411133,7.81108283996582,2.7479450702667236
1733141836439230200,9.155230224609374,-5.282207489013672,7.801506042480469,2.7527334690093994
1733141836449275100,9.165275146484374,-5.296572685241699,7.782352447509766,2.78625226020813
1733141836459341800,9.175341796875,-5.387552261352539,7.787140846252441,2.805405855178833
1733141836469428000,9.185427978515625,-5.464166641235352,7.830236434936523,2.8149826526641846
1733141836479531000,9.195531005859374,-5.368398666381836,7.887697696685791,2.8437130451202393
1733141836489647900,9.20564794921875,-5.152920722961426,7.897274494171143,2.848501443862915
1733141836499775000,9.21577490234375,-4.999093055725098,7.873332500457764,2.8341362476348877
1733141836509908700,9.22590869140625,-5.018246650695801,7.8541789054870605,2.7958290576934814
1733141836520044800,9.236044921875,-5.219958305358887,7.844601631164551,2.78625226020813
1733141836530146300,9.246146240234374,-5.373187065124512,7.858967304229736,2.7910406589508057
1733141836540188200,9.256188232421875,-5.354033470153809,7.858967304229736,2.7958290576934814
1733141836550108700,9.266108642578125,-5.2247467041015625,7.844601631164551,2.7766754627227783
1733141836560039000,9.276038818359375,-5.109226226806641,7.839813232421875,2.7766754627227783
1733141836569983000,9.28598291015625,-5.056553840637207,7.873332500457764,2.8006174564361572
1733141836579944200,9.295944091796875,-5.085284233093262,7.887697696685791,2.824559450149536
1733141836589924900,9.3059248046875,-5.157709121704102,7.882909297943115,2.78625226020813
1733141836599927000,9.315927001953124,-5.215169906616211,7.863755702972412,2.7287914752960205
1733141836609951200,9.325951171875,-5.253477096557617,7.8541789054870605,2.6856956481933594
1733141836619997200,9.3359970703125,-5.27263069152832,7.873332500457764,2.690484046936035
1733141836630059000,9.34605908203125,-5.2247467041015625,7.902062892913818,2.714426279067993
1733141836640140300,9.356140380859374,-5.162497520446777,7.926004886627197,2.738368272781372
1733141836650238500,9.366238525390624,-5.152920722961426,7.935581684112549,2.762310266494751
1733141836660350700,9.376350830078126,-5.196016311645508,7.935581684112549,2.8341362476348877
1733141836670473700,9.3864736328125,-5.243900299072266,7.926004886627197,2.8868086338043213
1733141836680604000,9.39660400390625,-5.243900299072266,7.91163969039917,2.9299042224884033
1733141836690737200,9.406737060546876,-5.219958305358887,7.897274494171143,2.9251158237457275
1733141836700855300,9.416855224609375,-5.186439514160156,7.882909297943115,2.939481019973755
1733141836710897000,9.42689697265625,-5.14813232421875,7.882909297943115,2.9011738300323486
1733141836720938500,9.4369384765625,-5.162497520446777,7.887697696685791,2.824559450149536
1733141836730861800,9.44686181640625,-5.191227912902832,7.902062892913818,2.7766754627227783
1733141836740794400,9.45679443359375,-5.176862716674805,7.930793285369873,2.7718870639801025
1733141836750740500,9.466740478515625,-5.143343925476074,7.959523677825928,2.7718870639801025
1733141836760698400,9.476698486328125,-5.118803024291992,7.959523677825928,2.8341362476348877
1733141836770676200,9.48667626953125,-5.118803024291992,7.959523677825928,2.853289842605591
1733141836780675000,9.496675048828125,-5.123591423034668,7.940370082855225,2.867655038833618
1733141836790696400,9.506696533203124,-5.123591423034668,7.935581684112549,2.891597032546997
1733141836800739800,9.51673974609375,-5.128978729248047,7.916428089141846,2.8772318363189697
1733141836810804500,9.526804443359374,-5.167285919189453,7.916428089141846,2.848501443862915
1733141836820888600,9.536888671875,-5.1816511154174805,7.9212164878845215,2.8149826526641846
1733141836830989800,9.54698974609375,-5.215169906616211,7.9212164878845215,2.810194253921509
1733141836841104600,9.557104736328125,-5.263053894042969,7.926004886627197,2.8389246463775635
1733141836851230000,9.56722998046875,-5.2247467041015625,7.935581684112549,2.867655038833618
1733141836861357300,9.577357421875,-5.152920722961426,7.916428089141846,2.867655038833618
1733141836871487700,9.58748779296875,-5.143343925476074,7.940370082855225,2.853289842605591
1733141836881605600,9.597605712890624,-5.162497520446777,7.959523677825928,2.8149826526641846
1733141836891647500,9.6076474609375,-5.104437828063965,7.926004886627197,2.8389246463775635
1733141836901568800,9.61756884765625,-5.094861030578613,7.91163969039917,2.853289842605591
1733141836911497500,9.62749755859375,-5.157709121704102,7.8781208992004395,2.8772318363189697
1733141836921440000,9.63743994140625,-5.253477096557617,7.8062944412231445,2.867655038833618
1733141836931400000,9.64739990234375,-5.3348798751831055,7.8062944412231445,2.848501443862915
1733141836941379800,9.6573798828125,-5.368398666381836,7.839813232421875,2.8820202350616455
1733141836951376100,9.667376220703124,-5.234323501586914,7.8781208992004395,2.8772318363189697
1733141836961395200,9.677395263671874,-5.056553840637207,7.892486095428467,2.867655038833618
1733141836971437000,9.68743701171875,-4.999093055725098,7.892486095428467,2.896385431289673
1733141836981500700,9.697500732421876,-5.099649429321289,7.873332500457764,2.915539026260376
1733141836991584000,9.707583984375,-5.210381507873535,7.868544101715088,2.896385431289673
1733141837001685000,9.71768505859375,-5.219958305358887,7.858967304229736,2.872443437576294
1733141837011800600,9.727800537109376,-5.186439514160156,7.835024833679199,2.8868086338043213
1733141837021927200,9.73792724609375,-5.128978729248047,7.858967304229736,2.8868086338043213
1733141837032060700,9.748060791015625,-5.123591423034668,7.873332500457764,2.867655038833618
1733141837042153700,9.75815380859375,-5.1816511154174805,7.887697696685791,2.8437130451202393
1733141837052249600,9.76824951171875,-5.215169906616211,7.892486095428467,2.8389246463775635
1733141837062345700,9.778345703125,-5.23911190032959,7.868544101715088,2.8580782413482666
1733141837072398300,9.7883984375,-5.234323501586914,7.873332500457764,2.8580782413482666
1733141837082439400,9.798439453125,-5.200804710388184,7.892486095428467,2.867655038833618
1733141837092361700,9.80836181640625,-5.186439514160156,7.91163969039917,2.872443437576294
1733141837102293800,9.818293701171875,-5.200804710388184,7.9212164878845215,2.891597032546997
1733141837112237000,9.828237060546876,-5.229535102844238,7.940370082855225,2.9203274250030518
1733141837122197500,9.838197509765624,-5.258265495300293,7.930793285369873,2.9490580558776855
1733141837132172500,9.848172607421875,-5.2678422927856445,7.916428089141846,2.9442696571350098
1733141837142169300,9.85816943359375,-5.253477096557617,7.887697696685791,2.9107506275177
1733141837152184000,9.86818408203125,-5.219958305358887,7.882909297943115,2.8389246463775635
1733141837162221600,9.8782216796875,-5.210381507873535,7.873332500457764,2.8006174564361572
1733141837172276500,9.8882763671875,-5.186439514160156,7.863755702972412,2.78625226020813
1733141837182347500,9.898347412109375,-5.167285919189453,7.868544101715088,2.7958290576934814
1733141837192433200,9.90843310546875,-5.162497520446777,7.882909297943115,2.7910406589508057
1733141837202535400,9.918535400390626,-5.200804710388184,7.8781208992004395,2.7958290576934814
1733141837212647000,9.92864697265625,-5.191227912902832,7.882909297943115,2.8437130451202393
1733141837222769000,9.938768798828125,-5.162497520446777,7.892486095428467,2.8868086338043213
1733141837232893000,9.948892822265625,-5.123591423034668,7.902062892913818,2.915539026260376
1733141837243020500,9.9590205078125,-5.094861030578613,7.91163969039917,2.915539026260376
1733141837253147400,9.9691474609375,-5.114014625549316,7.91163969039917,2.8772318363189697
1733141837263190000,9.97918994140625,-5.138555526733398,7.926004886627197,2.853289842605591
1733141837273231000,9.989231201171876,-5.162497520446777,7.940370082855225,2.8341362476348877
1733141837283272200,9.999272216796875,-5.176862716674805,7.940370082855225,2.8341362476348877
1733141837293313500,10.0093134765625,-5.176862716674805,7.930793285369873,2.8389246463775635
1733141837303354600,10.019354736328125,-5.186439514160156,7.935581684112549,2.8389246463775635
1733141837313396000,10.02939599609375,-5.157709121704102,7.954735279083252,2.853289842605591
1733141837323437300,10.039437255859376,-5.128978729248047,7.940370082855225,2.8437130451202393
1733141837333362700,10.04936279296875,-5.143343925476074,7.940370082855225,2.8437130451202393
1733141837343297500,10.059297607421875,-5.104437828063965,7.940370082855225,2.8772318363189697
1733141837353245700,10.06924560546875,-5.0900726318359375,7.935581684112549,2.8628666400909424
1733141837363210200,10.079210205078125,-5.191227912902832,7.969100475311279,2.805405855178833
1733141837373193700,10.08919384765625,-5.229535102844238,7.993042469024658,2.8006174564361572
1733141837383197700,10.09919775390625,-5.128978729248047,7.954735279083252,2.8197710514068604
1733141837393223200,10.10922314453125,-5.118803024291992,7.9451584815979,2.805405855178833
1733141837403269400,10.119269287109375,-5.162497520446777,7.916428089141846,2.8149826526641846
1733141837413335800,10.129335693359375,-5.243900299072266,7.863755702972412,2.829347848892212
1733141837423420400,10.13942041015625,-5.3348798751831055,7.863755702972412,2.810194253921509
1733141837433520600,10.149520751953125,-5.315726280212402,7.858967304229736,2.8389246463775635
1733141837443633700,10.159633544921874,-5.114014625549316,7.8541789054870605,2.8197710514068604
1733141837453756000,10.169755859375,-5.008669853210449,7.863755702972412,2.7718870639801025
1733141837463879400,10.17987939453125,-5.061342239379883,7.892486095428467,2.7670986652374268
1733141837474005200,10.190005126953125,-5.162497520446777,7.916428089141846,2.829347848892212
1733141837484107500,10.200107421875,-5.234323501586914,7.926004886627197,2.872443437576294
1733141837494148900,10.21014892578125,-5.234323501586914,7.9451584815979,2.8437130451202393
1733141837504190200,10.220190185546874,-5.1816511154174805,7.940370082855225,2.810194253921509
1733141837514208500,10.23020849609375,-5.143343925476074,7.930793285369873,2.7766754627227783
1733141837524228400,10.240228271484375,-5.143343925476074,7.930793285369873,2.743156671524048
1733141837534251000,10.2502509765625,-5.14813232421875,7.926004886627197,2.762310266494751
1733141837544277200,10.26027734375,-5.128978729248047,7.91163969039917,2.829347848892212
1733141837554307000,10.27030712890625,-5.123591423034668,7.882909297943115,2.8580782413482666
1733141837564341200,10.28034130859375,-5.094861030578613,7.882909297943115,2.853289842605591
1733141837574379000,10.29037890625,-5.085284233093262,7.892486095428467,2.8341362476348877
1733141837584419000,10.300419189453125,-5.133767127990723,7.902062892913818,2.7958290576934814
1733141837594459400,10.31045947265625,-5.167285919189453,7.926004886627197,2.8149826526641846
1733141837604487700,10.32048779296875,-5.229535102844238,7.902062892913818,2.8197710514068604
1733141837614516500,10.3305166015625,-5.310937881469727,7.887697696685791,2.8149826526641846
1733141837624546000,10.340546142578125,-5.344456672668457,7.863755702972412,2.8149826526641846
1733141837634577400,10.350577392578124,-5.315726280212402,7.849390506744385,2.8197710514068604
1733141837644610300,10.3606103515625,-5.27263069152832,7.825448036193848,2.8197710514068604
1733141837654650400,10.370650390625,-5.23911190032959,7.820659637451172,2.8389246463775635
1733141837664692200,10.380692138671876,-5.23911190032959,7.830236434936523,2.848501443862915
1733141837674739200,10.3907392578125,-5.2247467041015625,7.858967304229736,2.8389246463775635
1733141837684788000,10.4007880859375,-5.200804710388184,7.887697696685791,2.810194253921509
1733141837694837800,10.410837646484374,-5.196016311645508,7.8781208992004395,2.810194253921509
1733141837704888300,10.420888427734376,-5.210381507873535,7.892486095428467,2.805405855178833
1733141837714939100,10.430939208984375,-5.219958305358887,7.916428089141846,2.848501443862915
1733141837724988000,10.44098779296875,-5.205593109130859,7.926004886627197,2.891597032546997
1733141837735040500,10.45104052734375,-5.205593109130859,7.940370082855225,2.9059622287750244
1733141837745095700,10.461095703125,-5.210381507873535,7.930793285369873,2.9059622287750244
1733141837755137500,10.471137451171876,-5.23911190032959,7.9212164878845215,2.867655038833618
1733141837765154600,10.481154541015625,-5.263053894042969,7.892486095428467,2.810194253921509
1733141837775172600,10.491172607421875,-5.263053894042969,7.887697696685791,2.762310266494751
1733141837785197300,10.501197265625,-5.205593109130859,7.8781208992004395,2.757521867752075
1733141837795224000,10.51122412109375,-5.167285919189453,7.863755702972412,2.781463861465454
1733141837805258500,10.521258544921874,-5.14813232421875,7.8781208992004395,2.810194253921509
1733141837815299000,10.531299072265625,-5.14813232421875,7.8781208992004395,2.8197710514068604
1733141837825343200,10.54134326171875,-5.191227912902832,7.892486095428467,2.8197710514068604
1733141837835389700,10.5513896484375,-5.205593109130859,7.897274494171143,2.8341362476348877
1733141837845438200,10.561438232421875,-5.172074317932129,7.892486095428467,2.8389246463775635
1733141837855488500,10.571488525390626,-5.162497520446777,7.863755702972412,2.8341362476348877
1733141837865540000,10.5815400390625,-5.200804710388184,7.863755702972412,2.7910406589508057
1733141837875592400,10.591592529296875,-5.291784286499023,7.8781208992004395,2.7335798740386963
1733141837885645000,10.60164501953125,-5.258265495300293,7.839813232421875,2.7958290576934814
1733141837895697700,10.61169775390625,-5.133767127990723,7.8062944412231445,2.853289842605591
1733141837905754600,10.621754638671876,-5.143343925476074,7.787140846252441,2.7958290576934814
1733141837915779300,10.631779296875,-5.286995887756348,7.7631988525390625,2.810194253921509
1733141837925809700,10.6418095703125,-5.464166641235352,7.77756404876709,2.8197710514068604
1733141837935840800,10.6518408203125,-5.516839504241943,7.801506042480469,2.8868086338043213
1733141837945878000,10.6618779296875,-5.354033470153809,7.815871238708496,2.9011738300323486
1733141837955916500,10.67191650390625,-5.176862716674805,7.815871238708496,2.867655038833618
1733141837965961200,10.681961181640625,-5.14813232421875,7.844601631164551,2.824559450149536
1733141837976006700,10.692006591796876,-5.23911190032959,7.8781208992004395,2.8006174564361572
1733141837986057700,10.7020576171875,-5.33009147644043,7.887697696685791,2.8006174564361572
1733141837996108800,10.71210888671875,-5.339668273925781,7.892486095428467,2.7910406589508057
1733141838006156800,10.72215673828125,-5.2678422927856445,7.873332500457764,2.7958290576934814
1733141838016196600,10.732196533203124,-5.1816511154174805,7.863755702972412,2.78625226020813
1733141838026236700,10.742236572265625,-5.172074317932129,7.868544101715088,2.78625226020813
1733141838036276700,10.75227685546875,-5.196016311645508,7.868544101715088,2.8149826526641846
1733141838046317000,10.762317138671875,-5.205593109130859,7.882909297943115,2.8389246463775635
1733141838056357600,10.772357666015624,-5.2247467041015625,7.882909297943115,2.8389246463775635
1733141838066403000,10.782403076171875,-5.263053894042969,7.8781208992004395,2.8149826526641846
1733141838076453400,10.792453369140626,-5.282207489013672,7.868544101715088,2.810194253921509
1733141838086507800,10.8025078125,-5.291784286499023,7.8541789054870605,2.853289842605591
1733141838096531500,10.812531494140625,-5.27263069152832,7.858967304229736,2.8580782413482666
1733141838106560500,10.822560546875,-5.296572685241699,7.839813232421875,2.8628666400909424
1733141838116595500,10.832595458984375,-5.349245071411133,7.835024833679199,2.8580782413482666
1733141838126631400,10.84263134765625,-5.36361026763916,7.825448036193848,2.867655038833618
1733141838136673300,10.85267333984375,-5.358821868896484,7.815871238708496,2.824559450149536
1733141838146720800,10.862720703125,-5.325303077697754,7.787140846252441,2.7910406589508057
1733141838156773600,10.872773681640625,-5.27263069152832,7.7631988525390625,2.7670986652374268
1733141838166831000,10.8828310546875,-5.258265495300293,7.772775650024414,2.7718870639801025
1733141838176892400,10.892892333984374,-5.296572685241699,7.787140846252441,2.805405855178833
1733141838186956500,10.90295654296875,-5.33009147644043,7.8062944412231445,2.8197710514068604
1733141838196946700,10.91294677734375,-5.36361026763916,7.815871238708496,2.8197710514068604
1733141838206943700,10.92294384765625,-5.349245071411133,7.835024833679199,2.8437130451202393
1733141838216949000,10.932948974609374,-5.286995887756348,7.830236434936523,2.853289842605591
1733141838226964000,10.9429638671875,-5.253477096557617,7.844601631164551,2.853289842605591
1733141838236989200,10.9529892578125,-5.210381507873535,7.849390506744385,2.8341362476348877
1733141838247019800,10.963019775390626,-5.186439514160156,7.849390506744385,2.7910406589508057
1733141838257061000,10.97306103515625,-5.205593109130859,7.8541789054870605,2.7670986652374268
1733141838267112700,10.98311279296875,-5.229535102844238,7.858967304229736,2.762310266494751
1733141838277173800,10.993173828125,-5.248688697814941,7.873332500457764,2.7958290576934814
1733141838287243000,11.003242919921876,-5.229535102844238,7.8781208992004395,2.829347848892212
1733141838297319400,11.0133193359375,-5.210381507873535,7.892486095428467,2.8437130451202393
1733141838307400700,11.023400634765625,-5.191227912902832,7.902062892913818,2.891597032546997
1733141838317485600,11.033485595703125,-5.210381507873535,7.887697696685791,2.9059622287750244
1733141838327572000,11.043572021484374,-5.243900299072266,7.873332500457764,2.9011738300323486
1733141838337651000,11.05365087890625,-5.248688697814941,7.844601631164551,2.872443437576294
1733141838347694000,11.063694091796876,-5.258265495300293,7.8062944412231445,2.8389246463775635
1733141838357735000,11.07373486328125,-5.258265495300293,7.787140846252441,2.781463861465454
1733141838367775700,11.083775634765624,-5.282207489013672,7.8062944412231445,2.7287914752960205
1733141838377816300,11.09381640625,-5.301361083984375,7.820659637451172,2.714426279067993
1733141838387857200,11.103857177734374,-5.191227912902832,7.801506042480469,2.8006174564361572
1733141838397781200,11.11378125,-5.066130638122559,7.8062944412231445,2.824559450149536
1733141838407714600,11.123714599609375,-5.114014625549316,7.772775650024414,2.8437130451202393
1733141838417661400,11.133661376953125,-5.301361083984375,7.758410453796387,2.8389246463775635
1733141838427625200,11.143625244140624,-5.4210710525512695,7.767987251281738,2.848501443862915
1733141838437608000,11.15360791015625,-5.3348798751831055,7.791929244995117,2.915539026260376
1733141838447606500,11.1636064453125,-5.186439514160156,7.791929244995117,2.9203274250030518
1733141838457627000,11.173626953125,-5.143343925476074,7.8062944412231445,2.896385431289673
1733141838467669200,11.183669189453125,-5.186439514160156,7.839813232421875,2.848501443862915
1733141838477732400,11.193732421875,-5.277419090270996,7.887697696685791,2.805405855178833
1733141838487814700,11.203814697265624,-5.2678422927856445,7.916428089141846,2.7766754627227783
1733141838497909000,11.213908935546876,-5.162497520446777,7.926004886627197,2.7910406589508057
1733141838508018000,11.224017822265624,-5.037400245666504,7.916428089141846,2.8149826526641846
1733141838518137600,11.2341376953125,-5.008669853210449,7.897274494171143,2.8197710514068604
1733141838528264700,11.2442646484375,-5.051765441894531,7.882909297943115,2.8389246463775635
1733141838538395600,11.254395751953124,-5.109226226806641,7.906851291656494,2.8628666400909424
1733141838548406300,11.26440625,-5.167285919189453,7.897274494171143,2.8772318363189697
1733141838558423000,11.274423095703124,-5.172074317932129,7.902062892913818,2.872443437576294
1733141838568446500,11.284446533203125,-5.196016311645508,7.892486095428467,2.853289842605591
1733141838578477000,11.29447705078125,-5.219958305358887,7.892486095428467,2.853289842605591
1733141838588515300,11.304515380859375,-5.219958305358887,7.9212164878845215,2.853289842605591
1733141838598556000,11.314555908203126,-5.1816511154174805,7.91163969039917,2.8868086338043213
1733141838608603600,11.324603759765624,-5.215169906616211,7.897274494171143,2.9059622287750244
1733141838618658000,11.334657958984375,-5.258265495300293,7.892486095428467,2.915539026260376
1733141838628718600,11.344718505859374,-5.229535102844238,7.868544101715088,2.9251158237457275
1733141838638779000,11.35477880859375,-5.234323501586914,7.863755702972412,2.896385431289673
1733141838648843500,11.364843505859374,-5.191227912902832,7.820659637451172,2.891597032546997
1733141838658911000,11.374910888671875,-5.191227912902832,7.820659637451172,2.8628666400909424
1733141838668906800,11.38490673828125,-5.248688697814941,7.820659637451172,2.829347848892212
1733141838678909200,11.3949091796875,-5.286995887756348,7.835024833679199,2.8197710514068604
1733141838688919600,11.40491943359375,-5.282207489013672,7.844601631164551,2.848501443862915
1733141838698938600,11.414938720703125,-5.263053894042969,7.858967304229736,2.891597032546997
1733141838708967200,11.42496728515625,-5.277419090270996,7.873332500457764,2.9203274250030518
1733141838719005400,11.43500537109375,-5.27263069152832,7.873332500457764,2.9538464546203613
1733141838729053000,11.445052978515625,-5.2247467041015625,7.887697696685791,2.9777884483337402
1733141838739104800,11.455104736328124,-5.263053894042969,7.858967304229736,2.934692621231079
1733141838749164800,11.465164794921876,-5.301361083984375,7.858967304229736,2.9011738300323486
1733141838759232000,11.47523193359375,-5.277419090270996,7.825448036193848,2.8772318363189697
1733141838769300200,11.48530029296875,-5.258265495300293,7.81108283996582,2.8437130451202393
1733141838779373000,11.495373046875,-5.286995887756348,7.8062944412231445,2.8149826526641846
1733141838789449000,11.505448974609376,-5.286995887756348,7.81108283996582,2.7910406589508057
1733141838799526700,11.515526611328125,-5.277419090270996,7.825448036193848,2.78625226020813
1733141838809604900,11.52560498046875,-5.243900299072266,7.8541789054870605,2.810194253921509
1733141838819532300,11.5355322265625,-5.215169906616211,7.863755702972412,2.8389246463775635
1733141838829469200,11.54546923828125,-5.205593109130859,7.868544101715088,2.8820202350616455
1733141838839419400,11.55541943359375,-5.176862716674805,7.863755702972412,2.9251158237457275
1733141838849385700,11.5653857421875,-5.152920722961426,7.844601631164551,2.9299042224884033
1733141838859370800,11.575370849609374,-5.205593109130859,7.8541789054870605,2.8580782413482666
1733141838869371100,11.58537109375,-5.291784286499023,7.8781208992004395,2.810194253921509
1733141838879392800,11.595392822265625,-5.205593109130859,7.863755702972412,2.8580782413482666
1733141838889435400,11.605435302734374,-5.114014625549316,7.839813232421875,2.853289842605591
1733141838899498500,11.61549853515625,-5.200804710388184,7.815871238708496,2.8197710514068604
1733141838909580000,11.625580078125,-5.392340660095215,7.782352447509766,2.8437130451202393
1733141838919678000,11.635677978515625,-5.521627902984619,7.820659637451172,2.896385431289673
1733141838929789200,11.6457890625,-5.397129058837891,7.835024833679199,2.9921536445617676
1733141838939910700,11.65591064453125,-5.14813232421875,7.8541789054870605,2.987365245819092
1733141838950038500,11.66603857421875,-4.960785865783691,7.873332500457764,2.9490580558776855
1733141838960169000,11.6761689453125,-4.9799394607543945,7.892486095428467,2.9011738300323486
1733141838970278700,11.686278564453126,-5.157709121704102,7.91163969039917,2.8772318363189697
1733141838980320000,11.696320068359375,-5.291784286499023,7.91163969039917,2.8437130451202393
1733141838990360800,11.70636083984375,-5.263053894042969,7.9212164878845215,2.8006174564361572
1733141839000401700,11.716401611328125,-5.167285919189453,7.906851291656494,2.781463861465454
1733141839010442500,11.7264423828125,-5.123591423034668,7.892486095428467,2.762310266494751
1733141839020483600,11.736483642578126,-5.152920722961426,7.892486095428467,2.78625226020813
1733141839030524700,11.746524658203125,-5.172074317932129,7.897274494171143,2.824559450149536
1733141839040566000,11.75656591796875,-5.14813232421875,7.906851291656494,2.8437130451202393
1733141839050607400,11.766607421875,-5.094861030578613,7.902062892913818,2.853289842605591
1733141839060649000,11.77664892578125,-5.099649429321289,7.892486095428467,2.867655038833618
1733141839070690800,11.78669091796875,-5.152920722961426,7.91163969039917,2.872443437576294
1733141839080732700,11.796732666015625,-5.1816511154174805,7.926004886627197,2.8580782413482666
1733141839090774500,11.8067744140625,-5.143343925476074,7.935581684112549,2.848501443862915
1733141839100816600,11.816816650390624,-5.14813232421875,7.926004886627197,2.829347848892212
1733141839110858800,11.826858642578125,-5.215169906616211,7.902062892913818,2.8341362476348877
1733141839120901000,11.836901123046875,-5.23911190032959,7.887697696685791,2.8389246463775635
1733141839130943200,11.846943115234374,-5.2247467041015625,7.8781208992004395,2.829347848892212
1733141839140985300,11.8569853515625,-5.200804710388184,7.873332500457764,2.8197710514068604
1733141839151027700,11.86702783203125,-5.176862716674805,7.863755702972412,2.829347848892212
1733141839161069600,11.877069580078125,-5.1816511154174805,7.858967304229736,2.824559450149536
1733141839171111200,11.887111083984376,-5.243900299072266,7.863755702972412,2.829347848892212
1733141839181153000,11.897153076171875,-5.258265495300293,7.868544101715088,2.848501443862915
1733141839191194600,11.907194580078125,-5.258265495300293,7.882909297943115,2.872443437576294
1733141839201236500,11.917236572265624,-5.243900299072266,7.873332500457764,2.872443437576294
1733141839211278000,11.927278076171875,-5.210381507873535,7.887697696685791,2.872443437576294
1733141839221319700,11.937319580078125,-5.205593109130859,7.892486095428467,2.8628666400909424
1733141839231361300,11.947361328125,-5.2247467041015625,7.892486095428467,2.848501443862915
1733141839241403100,11.957403076171875,-5.229535102844238,7.873332500457764,2.8197710514068604
1733141839251325200,11.9673251953125,-5.219958305358887,7.863755702972412,2.7958290576934814
1733141839261257000,11.977257080078125,-5.1816511154174805,7.8541789054870605,2.7670986652374268
1733141839271202300,11.987202392578125,-5.157709121704102,7.868544101715088,2.757521867752075
1733141839281164500,11.99716455078125,-5.186439514160156,7.863755702972412,2.762310266494751
1733141839291146200,12.007146240234375,-5.234323501586914,7.863755702972412,2.7766754627227783
1733141839301149000,12.01714892578125,-5.263053894042969,7.863755702972412,2.8006174564361572
1733141839311173000,12.027173095703125,-5.23911190032959,7.868544101715088,2.805405855178833
1733141839321219000,12.037218994140625,-5.215169906616211,7.873332500457764,2.8006174564361572
1733141839331285500,12.047285400390624,-5.186439514160156,7.887697696685791,2.824559450149536
1733141839341370600,12.05737060546875,-5.128978729248047,7.906851291656494,2.8437130451202393
1733141839351472000,12.06747216796875,-5.152920722961426,7.897274494171143,2.8149826526641846
1733141839361586700,12.077586669921875,-5.263053894042969,7.926004886627197,2.762310266494751
1733141839371711000,12.0877109375,-5.291784286499023,7.91163969039917,2.8341362476348877
1733141839381841400,12.09784130859375,-5.133767127990723,7.892486095428467,2.8341362476348877
1733141839391974000,12.107973876953125,-5.07570743560791,7.887697696685791,2.824559450149536
1733141839402023000,12.11802294921875,-5.2247467041015625,7.863755702972412,2.848501443862915
1733141839412073700,12.12807373046875,-5.411494255065918,7.868544101715088,2.8628666400909424
1733141839422125600,12.13812548828125,-5.516839504241943,7.8781208992004395,2.8868086338043213
1733141839432178000,12.148177978515625,-5.387552261352539,7.897274494171143,2.891597032546997
1733141839442230800,12.158230712890624,-5.109226226806641,7.892486095428467,2.8580782413482666
1733141839452159000,12.168158935546876,-4.9799394607543945,7.887697696685791,2.8149826526641846
1733141839462096400,12.178096435546875,-5.080495834350586,7.873332500457764,2.78625226020813
1733141839472046800,12.188046875,-5.253477096557617,7.873332500457764,2.7670986652374268
1733141839482013700,12.198013671875,-5.33009147644043,7.858967304229736,2.7287914752960205
1733141839491999000,12.2079990234375,-5.282207489013672,7.849390506744385,2.743156671524048
1733141839501999600,12.21799951171875,-5.162497520446777,7.849390506744385,2.7718870639801025
1733141839512021000,12.22802099609375,-5.0900726318359375,7.849390506744385,2.8006174564361572
1733141839522063400,12.2380634765625,-5.066130638122559,7.892486095428467,2.824559450149536
1733141839532121900,12.248121826171875,-5.118803024291992,7.926004886627197,2.8149826526641846
1733141839542199300,12.25819921875,-5.200804710388184,7.9212164878845215,2.8197710514068604
1733141839552288500,12.26828857421875,-5.219958305358887,7.906851291656494,2.8341362476348877
1733141839562392300,12.278392333984375,-5.205593109130859,7.882909297943115,2.829347848892212
1733141839572502500,12.28850244140625,-5.191227912902832,7.887697696685791,2.8341362476348877
1733141839582621200,12.29862109375,-5.176862716674805,7.882909297943115,2.824559450149536
1733141839592739800,12.30873974609375,-5.172074317932129,7.906851291656494,2.829347848892212
1733141839602860300,12.3188603515625,-5.210381507873535,7.906851291656494,2.867655038833618
1733141839612825600,12.32882568359375,-5.263053894042969,7.902062892913818,2.9107506275177
1733141839622798600,12.338798583984374,-5.310937881469727,7.897274494171143,2.8772318363189697
1733141839632777500,12.348777587890625,-5.310937881469727,7.887697696685791,2.8149826526641846
1733141839642768600,12.3587685546875,-5.2678422927856445,7.863755702972412,2.7766754627227783
1733141839652769000,12.36876904296875,-5.258265495300293,7.835024833679199,2.78625226020813
1733141839662784800,12.37878466796875,-5.263053894042969,7.835024833679199,2.7718870639801025
1733141839672816400,12.38881640625,-5.27263069152832,7.839813232421875,2.7958290576934814
1733141839682863600,12.398863525390626,-5.263053894042969,7.839813232421875,2.824559450149536
1733141839692925700,12.40892578125,-5.263053894042969,7.844601631164551,2.8341362476348877
1733141839703000800,12.419000732421875,-5.253477096557617,7.858967304229736,2.8389246463775635
1733141839713087500,12.42908740234375,-5.229535102844238,7.882909297943115,2.805405855178833
1733141839723178500,12.439178466796875,-5.215169906616211,7.892486095428467,2.78625226020813
1733141839733276700,12.449276611328125,-5.2247467041015625,7.887697696685791,2.7527334690093994
1733141839743379200,12.459379150390625,-5.253477096557617,7.892486095428467,2.757521867752075
1733141839753483500,12.4694833984375,-5.253477096557617,7.882909297943115,2.757521867752075
1733141839763570200,12.479570068359376,-5.258265495300293,7.863755702972412,2.757521867752075
1733141839773612500,12.489612548828125,-5.2247467041015625,7.849390506744385,2.781463861465454
1733141839783654400,12.499654296875,-5.186439514160156,7.868544101715088,2.810194253921509
1733141839793696000,12.509696044921874,-5.167285919189453,7.873332500457764,2.829347848892212
1733141839803737600,12.519737548828125,-5.186439514160156,7.868544101715088,2.810194253921509
1733141839813779200,12.529779296875,-5.229535102844238,7.868544101715088,2.78625226020813
1733141839823820800,12.53982080078125,-5.27263069152832,7.863755702972412,2.7718870639801025
1733141839833862400,12.5498623046875,-5.301361083984375,7.8541789054870605,2.7766754627227783
1733141839843904000,12.559904052734375,-5.296572685241699,7.8541789054870605,2.8149826526641846
1733141839853945600,12.569945556640626,-5.243900299072266,7.8541789054870605,2.829347848892212
1733141839863867600,12.57986767578125,-5.258265495300293,7.863755702972412,2.805405855178833
1733141839873799200,12.589799072265626,-5.3348798751831055,7.892486095428467,2.7766754627227783
1733141839883739400,12.599739501953126,-5.27263069152832,7.8781208992004395,2.853289842605591
1733141839893697300,12.609697265625,-5.1816511154174805,7.835024833679199,2.915539026260376
1733141839903675000,12.6196748046875,-5.248688697814941,7.801506042480469,2.8868086338043213
1733141839913674200,12.62967431640625,-5.387552261352539,7.767987251281738,2.8389246463775635
1733141839923696400,12.6396962890625,-5.526416301727295,7.782352447509766,2.805405855178833
1733141839933740800,12.64974072265625,-5.531204700469971,7.835024833679199,2.8149826526641846
1733141839943806500,12.659806396484376,-5.325303077697754,7.868544101715088,2.805405855178833
1733141839953892000,12.66989208984375,-5.085284233093262,7.882909297943115,2.7718870639801025
1733141839963995000,12.679994873046875,-5.008669853210449,7.858967304229736,2.743156671524048
1733141839974111500,12.690111572265625,-5.099649429321289,7.868544101715088,2.7335798740386963
1733141839984237800,12.70023779296875,-5.23911190032959,7.882909297943115,2.7335798740386963
1733141839994368300,12.7103681640625,-5.286995887756348,7.873332500457764,2.738368272781372
1733141840004470300,12.72047021484375,-5.229535102844238,7.868544101715088,2.7670986652374268
1733141840014498000,12.730498046875,-5.143343925476074,7.8781208992004395,2.810194253921509
1733141840024526300,12.7405263671875,-5.109226226806641,7.906851291656494,2.829347848892212
1733141840034555100,12.75055517578125,-5.138555526733398,7.926004886627197,2.8197710514068604
1733141840044585500,12.76058544921875,-5.172074317932129,7.926004886627197,2.8197710514068604
1733141840054617600,12.77061767578125,-5.176862716674805,7.930793285369873,2.810194253921509
1733141840064656400,12.780656494140626,-5.172074317932129,7.926004886627197,2.78625226020813
1733141840074697500,12.790697509765625,-5.14813232421875,7.926004886627197,2.7958290576934814
1733141840084743400,12.800743408203125,-5.143343925476074,7.91163969039917,2.810194253921509
1733141840094790700,12.810790771484376,-5.157709121704102,7.916428089141846,2.805405855178833
1733141840104839400,12.82083935546875,-5.191227912902832,7.916428089141846,2.7910406589508057
1733141840114888700,12.830888671875,-5.23911190032959,7.906851291656494,2.781463861465454
1733141840124938800,12.840938720703125,-5.263053894042969,7.916428089141846,2.7910406589508057
1733141840134989000,12.850989013671875,-5.243900299072266,7.902062892913818,2.8197710514068604
1733141840145034800,12.86103466796875,-5.234323501586914,7.887697696685791,2.824559450149536
1733141840155083000,12.8710830078125,-5.263053894042969,7.868544101715088,2.824559450149536
1733141840165134300,12.88113427734375,-5.263053894042969,7.873332500457764,2.829347848892212
1733141840175179500,12.891179443359375,-5.234323501586914,7.8781208992004395,2.8006174564361572
1733141840185201400,12.901201416015626,-5.205593109130859,7.887697696685791,2.7670986652374268
1733141840195228700,12.911228759765624,-5.2247467041015625,7.882909297943115,2.7479450702667236
1733141840205259300,12.92125927734375,-5.234323501586914,7.8781208992004395,2.7670986652374268
1733141840215296000,12.9312958984375,-5.258265495300293,7.8781208992004395,2.829347848892212
1733141840225336800,12.9413369140625,-5.2247467041015625,7.873332500457764,2.853289842605591
1733141840235381800,12.9513818359375,-5.196016311645508,7.892486095428467,2.848501443862915
1733141840245429200,12.96142919921875,-5.172074317932129,7.902062892913818,2.824559450149536
1733141840255477500,12.9714775390625,-5.162497520446777,7.91163969039917,2.824559450149536
1733141840265526000,12.981526123046875,-5.176862716674805,7.9212164878845215,2.8197710514068604
1733141840275574800,12.99157470703125,-5.167285919189453,7.9451584815979,2.8006174564361572
1733141840285620500,13.001620361328126,-5.162497520446777,7.9451584815979,2.7766754627227783
1733141840295662600,13.01166259765625,-5.157709121704102,7.9451584815979,2.7527334690093994
1733141840305702100,13.0217021484375,-5.172074317932129,7.949946880340576,2.7766754627227783
1733141840315741400,13.031741455078125,-5.1816511154174805,7.954735279083252,2.810194253921509
1733141840325785900,13.041785888671875,-5.191227912902832,7.9451584815979,2.810194253921509
1733141840335827000,13.051826904296876,-5.2247467041015625,7.940370082855225,2.805405855178833
1733141840345873000,13.061872802734374,-5.258265495300293,7.926004886627197,2.7910406589508057
