time,seconds_elapsed,z,y,x
1731409618326125800,0.099125732421875,-0.3466758411198854,-0.0255311854891479,-0.4994698630839586
1731409618336147000,0.10914697265625,-0.12070026308894156,-0.14279124499633908,-0.4765088568763807
1731409618346167800,0.119167724609375,-0.03296586553454399,-0.09240195097401738,-0.4103979698481038
1731409618356188000,0.12918798828125,-0.10108020133972168,-0.0810119574315846,-0.3314017726857215
1731409618366208800,0.139208740234375,-0.17753040381371973,-0.1907026045978069,-0.25127361235134305
1731409618376230000,0.14922998046875,-0.3294990808695554,-0.23927491232603787,-0.08031999311204999
1731409618386249700,0.159249755859375,-0.2781815660864115,-0.1293435882717371,0.018524119738675654
1731409618396271000,0.16927099609375,-0.1508668532937765,-0.06028685704991221,0.02470675389636308
1731409618406292000,0.1792919921875,-0.084234865000844,-0.12880115195810793,-0.0380469864574261
1731409618416312800,0.189312744140625,0.08201134373247623,-0.25202172730490563,-0.17466420072764158
1731409618426333000,0.1993330078125,0.10323884067833423,-0.3740751585684716,-0.21330423944108187
1731409618436354000,0.20935400390625,0.0692857176721096,-0.30023323889672754,-0.17280158519353717
1731409618446375000,0.219375,0.19931202751100063,-0.14463131990507244,-0.0768595139272511
1731409618456395800,0.229395751953125,0.222732066065073,-0.0926215850740671,0.07764728503776713
1731409618466415900,0.239415771484375,0.14379472295045853,-0.12500585132837294,0.24239784838585182
1731409618476436700,0.249436767578125,-0.13369827634990214,-0.08309782379493116,0.30693507462292907
1731409618486457900,0.259457763671875,-0.29060440980792046,-0.054166328343003986,0.27471396304108203
1731409618496478000,0.26947802734375,-0.36700960409641264,-0.1316518652141094,0.19407688507018608
1731409618506498800,0.279498779296875,-0.22630641742050647,-0.24952128879129884,0.11594493092116899
1731409618516519700,0.289519775390625,0.002911503532528877,-0.2471959145836532,0.03598437310550362
1731409618526540800,0.299540771484375,0.043963644888997074,-0.0783136582583189,-0.05747816543788649
1731409618536561000,0.309560791015625,-0.07508359029591083,0.006745528737455606,-0.043109439212456344
1731409618546582000,0.31958203125,-0.15930851842463015,-0.05423179479464888,0.022185117331100627
1731409618556603000,0.329602783203125,-0.08574410052001476,-0.22550693760588764,0.08465173870604485
1731409618566623000,0.339623046875,0.13408113818764686,-0.3005062106192112,0.11374081760616972
1731409618576643800,0.349643798828125,0.27105449068546295,-0.2533081138536334,0.12875309329899026
1731409618586665000,0.3596650390625,0.22258710463643072,-0.08717939402014016,0.17400279594315216
1731409618596685300,0.369685302734375,-0.0020645313143730164,0.09470672078505157,0.3300469605432823
1731409618606705400,0.379705322265625,-0.2499813075184822,0.1467724235869944,0.45875097226984796
1731409618616726300,0.389726318359375,-0.4022136039465666,0.011517711575329303,0.4545570642439648
1731409618626747600,0.39974755859375,-0.36078444597125053,-0.21714242936447262,0.31650515926182266
1731409618636768500,0.4097685546875,-0.16881050626337527,-0.31851269969195123,0.1152574418473523
1731409618646788600,0.41978857421875,0.0009118541479110718,-0.267263720100373,-0.011645057432178873
1731409618656809500,0.4298095703125,0.14875848283767698,-0.22265213269665837,-0.03133047603518935
1731409618666830600,0.43983056640625,0.3476151677966118,-0.28947759773507714,0.035319666685652916
1731409618676850400,0.449850341796875,0.4600421080589294,-0.33626199913322924,0.16531753131477162
1731409618686871600,0.45987158203125,0.456704488068819,-0.12071297644004225,0.42013372991010545
1731409618696892400,0.469892333984375,0.20236966151595115,0.37410496918484565,0.7066142647210508
1731409618706913500,0.47991357421875,-0.25083120234608647,0.3373351813226938,0.7644462759647518
1731409618716933400,0.489933349609375,-0.46991468277573584,-0.12716390614509582,0.6848077988434582
1731409618726954500,0.49995458984375,-0.3354576970130205,-0.204784175311774,0.5107662600588053
1731409618736975400,0.509975341796875,-0.08170973043739795,0.0012431319288909435,0.32260691020302473
1731409618746995500,0.519995361328125,0.20890870789587496,-0.03080328067317605,0.2781636651035398
1731409618757016300,0.530016357421875,0.42900925641357895,-0.12623027855679392,0.2938197003263049
1731409618767037400,0.540037353515625,0.4247989452421665,-0.11371624942049384,0.27305633202716706
1731409618777058600,0.55005859375,0.22267653648555277,-0.10304521780237555,0.2646779048582539
1731409618787078400,0.560078369140625,0.08473404669463634,-0.12062544428706168,0.2718929142709821
1731409618797099500,0.570099609375,0.13528466875851153,-0.14682210794761777,0.23470893785106017
1731409618807120600,0.58012060546875,0.2585030521482229,-0.13659458231329918,0.24541650208728386
1731409618817141500,0.5901416015625,0.27861352776288983,-0.10658157523497938,0.28559768756181
1731409618827161600,0.60016162109375,0.24718612384200095,-0.10552125252708792,0.30607938937535506
1731409618837182500,0.610182373046875,0.22873802848160266,-0.11416399318799376,0.29310073840199036
1731409618847203600,0.62020361328125,0.21680092245042323,-0.08341784952953457,0.25452910701595244
1731409618857223400,0.630223388671875,0.17343465893268584,-0.05720452699512243,0.26729285486331206
1731409618867244500,0.64024462890625,0.18393033398389816,-0.07601444140523672,0.244985764253512
1731409618877265400,0.650265380859375,0.19699615178406238,-0.07842062576413154,0.18357947471961378
1731409618887286500,0.66028662109375,0.2925882771015167,-0.06353752940893173,0.2663062915113754
1731409618897306400,0.670306396484375,0.3202653885781765,-0.030588030487298964,0.35358609543237834
1731409618907327500,0.680327392578125,0.20696692617833612,-0.04554974503666162,0.2825692796513438
1731409618917348400,0.690348388671875,0.16069325078129768,-0.15006240504309534,0.20689161418611182
1731409618927368400,0.700368408203125,0.2085235079705715,-0.1703201801739633,0.20013899812074376
1731409618937389600,0.7103896484375,0.09977379491627215,-0.1127405362561345,0.18172418397543952
1731409618947410700,0.72041064453125,0.012590016981959343,-0.07581336587518453,0.21619133918471634
1731409618957431600,0.730431640625,0.05753975029885768,-0.09467603338584303,0.259823870689515
1731409618967451600,0.74045166015625,0.1572626918107271,-0.1324213882818818,0.28696904898025094
1731409618977472500,0.750472412109375,0.28175942457318304,-0.16100143994763494,0.28563579108249393
1731409618987493600,0.76049365234375,0.2783551690876484,-0.1875087769925594,0.3026525749981403
1731409618997514500,0.770514404296875,0.26022271554768084,-0.22821166651993988,0.2846525521988049
1731409619007534600,0.78053466796875,0.24471184268295765,-0.26037790610939265,0.23563465612754225
1731409619017555500,0.790555419921875,0.21903087345957756,-0.24926190720275043,0.23296574744554235
1731409619027576300,0.800576416015625,0.1445797358483076,-0.21290303822904824,0.24466749208457766
1731409619037596400,0.810596435546875,0.14783260016441344,-0.21820742824748157,0.29142076769210395
1731409619047617500,0.820617431640625,0.10478373203277587,-0.22516484616994856,0.38155513906031846
1731409619057638400,0.830638427734375,0.05027005155682564,-0.1947631320349872,0.40461624464150514
1731409619067659500,0.840659423828125,-0.0968394950300455,-0.16908362411633132,0.2620066398223862
1731409619077679400,0.850679443359375,-0.11030103414952755,-0.2805124932520091,0.1348968750173226
1731409619087700500,0.860700439453125,0.013527005571126937,-0.33486791442632674,0.40797487088702616
1731409619097721600,0.8707216796875,-0.2901934909194708,0.10894070558175444,0.551132026586309
1731409619107741700,0.88074169921875,-0.3351671896338463,0.3709045657083392,0.5541712846843525
1731409619117762600,0.890762451171875,-0.1540039822757244,0.18044176121577618,0.5176405297424644
1731409619127783400,0.900783447265625,-0.19342180042862891,-0.06791925162449479,0.5407132161635905
1731409619137804500,0.910804443359375,0.02827157023847103,-0.1292712536878884,0.45681273421626534
1731409619147824600,0.92082470703125,0.29808161382079124,-0.17342369914725422,0.42934119178168473
1731409619157845500,0.930845458984375,0.26730712085068226,-0.26891937835291024,0.4024348454818129
1731409619167866400,0.940866455078125,0.22662790445983408,-0.2977290009908378,0.3235289934840053
1731409619177887500,0.950887451171875,0.18889877004623412,-0.2199216848194599,0.2754851483429782
1731409619187907600,0.960907470703125,0.018618775752186775,-0.14965864654779434,0.2891990547883324
1731409619197928400,0.970928466796875,-0.04587736955583095,-0.1511988617271185,0.32945177112910895
1731409619207949300,0.98094921875,-0.0715992553114891,-0.1514239026546478,0.35296789046879856
1731409619217969400,0.990969482421875,-0.07889350397288798,-0.09977087230682373,0.4264894190797582
1731409619227990300,1.000990234375,-0.12161211723685264,-0.03943739963620901,0.4236676761899143
1731409619238011600,1.01101171875,-0.25896716252863405,-0.03639847033172846,0.29588088890612124
1731409619248032500,1.021032470703125,-0.3131657857060432,-0.11009586696624755,0.16240062095476313
1731409619258052600,1.031052490234375,-0.32871056084036826,-0.09880494988411664,0.18121420689299703
1731409619268073500,1.041073486328125,-0.489963199070096,-0.015110183109343051,0.3303533961439505
1731409619278094600,1.051094482421875,-0.37499417310953137,0.04213789076656103,0.41695864353794604
1731409619288114400,1.061114501953125,-0.13481354411542415,0.11351678132563829,0.44406712481379507
1731409619298135600,1.071135498046875,-0.08643032921850681,0.17303309239447115,0.4331013480328023
1731409619308156400,1.081156494140625,-0.05349836595356464,0.1913964320808649,0.3933193727426231
1731409619318177500,1.091177490234375,-0.0471691629320383,0.12008563832193613,0.39832843307629223
1731409619328197400,1.101197265625,-0.01733750376999378,0.056986500330269335,0.4189527034319937
1731409619338218500,1.111218505859375,0.24292554378807543,0.08511544722765683,0.461024835485965
1731409619348239400,1.1212392578125,-0.35139351729154583,-0.02528437112122774,0.42095045312047
1731409619358260500,1.131260498046875,-0.05948620819151401,-0.15524024607241152,0.4472929549925029
1731409619368280300,1.1412802734375,0.28980595290660854,-0.07583294735848903,0.4554231430213898
1731409619378301400,1.151301513671875,-0.17777298039793968,0.03421937272697687,0.29995602939054367
1731409619388322600,1.161322509765625,-0.5733166050612926,0.021971301050484178,0.2242551839791238
1731409619398342700,1.1713427734375,-0.7314134096086025,0.02222059963643551,0.35909050153493877
1731409619408363500,1.181363525390625,-0.974038509145379,0.16784692192822695,0.5585602038256824
1731409619418384600,1.191384521484375,-1.278474460428953,0.3280249166637659,0.6454568353816866
1731409619428405500,1.201405517578125,-1.4849638322234153,0.2750704483285546,0.5049282746203243
1731409619438425600,1.211425537109375,-1.6431564983606337,0.05249444960802793,0.3328052828080952
1731409619448446500,1.221446533203125,-1.706582968610525,-0.4510276114761829,0.051503685005009174
1731409619458467600,1.231467529296875,-1.7340438069880009,-0.5644511615604162,-0.08345365149527788
1731409619468487400,1.2414873046875,-1.4053805924206972,-0.1699544156014919,0.051450493513047695
1731409619478508500,1.251508544921875,-0.8367343172580003,0.04943769238591194,0.16397943284511565
1731409619488529400,1.261529296875,-0.28236031307578086,0.2560550744742155,0.23556305219605564
1731409619498550500,1.271550537109375,0.08961889612674713,0.5632265882015228,0.18175109024867414
1731409619508570400,1.2815703125,-0.09634148238003254,0.7801604893818497,0.232191383805871
1731409619518591500,1.291591552734375,-0.396005981478095,0.8327516773626208,0.23772344510033724
1731409619528612600,1.301612548828125,-0.5876701245844363,0.8816507328271865,0.06895268632546067
1731409619538633500,1.311633544921875,-0.5846610058963299,1.0188760142594575,0.13787439299076795
1731409619548653600,1.321653564453125,-0.5951280393749475,1.033644252063334,0.2506001700691879
1731409619558674700,1.3316748046875,-0.9082494014173745,0.8024819190442561,0.45125119109898804
1731409619568695600,1.341695556640625,-1.1064075827181339,0.5394970453068614,0.6138055595770477
1731409619578715600,1.351715576171875,-1.0016203435540199,0.43746056615561246,0.7140154078230262
1731409619588736500,1.361736572265625,-0.8574614634662866,0.5681997004389763,0.8170373908802866
1731409619598757400,1.37175732421875,-0.9685907651335001,0.8957178366243839,1.0975292797356844
1731409619608778200,1.3817783203125,-1.3740256692141293,0.9619050037592649,1.16007078384459
1731409619618798300,1.39179833984375,-2.0418658935785294,1.011152434270084,1.1509615947157144
1731409619628819200,1.401819091796875,-2.944074261265993,0.9960106869786978,1.0159522357672452
1731409619638840300,1.41184033203125,-3.5600142025232313,0.6921814694166183,0.8620151812478899
1731409619648860200,1.421860107421875,-3.591328209197521,0.5647948604315519,0.3889800283640623
1731409619658881300,1.43188134765625,-3.3853315893560647,0.2670177825152874,-0.22614771972745656
1731409619668902100,1.441902099609375,-3.29412279368937,-0.3395873441636562,-0.47843905775398016
1731409619678923300,1.45192333984375,-3.154855192774534,-0.73721829649508,-0.4310004302307963
1731409619688943000,1.461943115234375,-3.020063860490918,-0.8744804028064012,-0.4161158725708723
1731409619698964500,1.471964599609375,-2.8863994864106175,-0.9441729477137326,-0.36924540032446385
1731409619708985300,1.4819853515625,-2.629517313462496,-1.0049830979853869,-0.5282438298866152
1731409619719006200,1.492006103515625,-2.028974847823381,-1.1667156286865472,-0.937092634063959
1731409619729026300,1.5020263671875,-1.6585440371066331,-1.2849492094010113,-0.9869546893417834
1731409619739047200,1.512047119140625,-1.5567580255851148,-1.2620277680188416,-0.5327998857557773
1731409619749068300,1.522068359375,-1.2945906057104468,-0.9352624960273503,-0.1178968961060047
1731409619759088400,1.53208837890625,-0.621339754474163,-1.0382400554209947,0.13982289671003817
1731409619769109200,1.542109130859375,-0.16048369968384504,-1.0349182175219058,0.19321254159212112
1731409619779130000,1.552130126953125,0.32827100037932394,-0.271300574401021,0.08156418448686599
1731409619789151200,1.562151123046875,1.1276596295833587,-0.044586160701513285,0.12871230463087557
1731409619799171300,1.57217138671875,0.8242913075312972,0.15707389124035834,0.2318079374462366
1731409619809192200,1.582192138671875,0.27282281553223725,0.2594628370910883,0.15487784250080586
1731409619819213000,1.592213134765625,0.1417301916360855,0.4329653005629778,0.6352846931964159
1731409619829234400,1.602234375,-0.3446633322536945,0.7178770516872406,1.1082692849367857
1731409619839254000,1.61225390625,-0.8681560220904648,0.9969581969618797,1.305981476035714
1731409619849275400,1.622275390625,-0.5863881219498813,1.0955132637381553,1.2089029115527867
1731409619859296300,1.632296142578125,0.27649463591277595,1.071701595517993,1.2500696191996334
1731409619869316400,1.64231640625,0.804677383261919,1.2098580203205347,1.1304016217678785
1731409619879337200,1.652337158203125,0.8956167143374681,1.4958213263243436,0.7293699210822582
1731409619889358300,1.6623583984375,1.0436031168241053,1.6082400832802057,0.6015741467744111
1731409619899379200,1.672379150390625,1.2760136232733725,1.6140718581736087,0.8510925129562615
1731409619909399300,1.6823994140625,1.2715338475108147,1.528900004583597,1.2884066563785075
1731409619919420200,1.692420166015625,0.6235147604256868,1.5093185212790965,1.752495994001627
1731409619929441300,1.702441162109375,0.10240881959497929,1.3920838884741067,1.923820528912544
1731409619939461000,1.712461181640625,-0.2851882299780846,1.3067793484151362,1.965026399526
1731409619949482200,1.722482177734375,-1.5791665490090847,1.5520184298425912,2.014398625460267
1731409619959503000,1.732503173828125,-3.244484025773406,1.9126935702204704,1.6022686076551675
1731409619969524200,1.742524169921875,-4.044851729142666,2.31989957562685,0.7765215483576059
1731409619979544000,1.7525439453125,-4.442715321186185,2.722841493847966,0.14678162980675696
1731409619989565200,1.762565185546875,-5.200311804321408,3.1241648709565397,-0.2138742213487625
1731409619999586300,1.77258642578125,-5.657390970921516,3.279357186233997,-0.3449947561651468
1731409620009607400,1.782607421875,-6.458943500161171,3.2512919522225854,-0.46045419599115844
1731409620019627300,1.792627197265625,-7.345151165640353,3.816233527648449,-0.44949967125654217
1731409620029648400,1.8026484375,-8.03058491436243,4.348902480500937,-0.4960626849889755
1731409620039669200,1.812669189453125,-8.274597084343434,4.993996620050073,-0.49093818158209324
1731409620049689300,1.822689453125,-8.122498643428086,5.627614256817102,-0.4338812463641166
1731409620059710200,1.832710205078125,-7.676993594765663,6.005179157197475,-0.609062456703186
1731409620069731300,1.8427314453125,-7.032958024358749,5.719612157034874,-0.3465297106474638
1731409620079752200,1.852752197265625,-5.377023877489567,5.093366510340571,-0.19612229155898092
1731409620089772300,1.862772216796875,-0.9829580209210514,4.5796816594213245,-0.4072387386322021
1731409620099793200,1.872793212890625,40.902999427270885,2.6026263839274644,-3.8213124383479355
1731409620109814300,1.882814208984375,43.332697932744026,2.70213246781826,-6.935108475503325
1731409620119835100,1.892835205078125,11.058508840703963,8.816189932885765,-4.518465266436338
1731409620129855200,1.902855224609375,3.771010530348122,6.207843417745829,-3.5128678359448906
1731409620139876400,1.91287646484375,3.548750757969916,4.919783967369795,-2.1271277635395527
1731409620149897200,1.922897216796875,1.4625126387014984,1.4457365682065486,-0.03903612535893917
1731409620159917300,1.932917236328125,0.35866146246790886,-0.8360942657887935,1.5438263555586338
1731409620169938400,1.9429384765625,0.798565622383356,-1.4059686214417217,2.454288172328472
1731409620179959300,1.952959228515625,1.233718496118486,-1.8815484903723,1.6405343331634998
1731409620189980200,1.962980224609375,2.480280691719055,-1.6520675345689058,0.29969606328010556
1731409620200000300,1.973000244140625,3.210065331082046,-0.7115513557970523,-1.1527578304827213
1731409620210021400,1.983021484375,3.5792476030424236,0.4356611155182123,-2.2608640338122843
1731409620220042200,1.993042236328125,3.5547839006543156,1.0384580820858478,-2.8433494492352005
1731409620230062300,2.003062255859375,3.021936376364529,1.2083511228889225,-2.5275106449276206
1731409620240083200,2.013083251953125,2.3654303237020966,1.194638823878765,-1.6764029344022273
1731409620250104000,2.02310400390625,1.2990135367192328,0.8023924871951341,-0.7857663465648889
1731409620260125200,2.033125244140625,0.47646848833337424,0.22035130840837955,-0.020388123512268066
1731409620270145300,2.043145263671875,0.0025974691472947595,-0.2628863817989826,0.5691583163380622
1731409620280166100,2.053166259765625,-0.26761516388654705,-0.5838941131770611,0.8499947808474302
1731409620290187300,2.063187255859375,-0.28126608809828757,-0.6296516557455063,0.7402841138064861
1731409620300208400,2.07320849609375,0.04790281096883118,-0.39931788250505923,0.5017728793293237
1731409620310228200,2.083228271484375,0.37669045563340187,-0.05829378353655338,0.23321312806904315
1731409620320249300,2.093249267578125,0.08845799912121147,0.3954501011610031,0.14930150367319583
1731409620330270200,2.103270263671875,-0.728799427717924,0.7430062322467565,0.2711509367972612
1731409620340290300,2.113290283203125,-1.1366975070416927,0.5333540125072002,0.6080284374803304
1731409620350311200,2.123311279296875,-1.797360387122631,0.20178163249492645,0.9276075973600149
1731409620360332300,2.133332275390625,-2.489644732391834,0.20311317335963247,1.101755957520008
1731409620370353200,2.143353271484375,-2.3101620254665614,-0.04808510873317718,1.4186889868050814
1731409620380373200,2.153373291015625,-1.978967246595025,-0.17387071226239204,1.5454618478059767
1731409620390394000,2.16339404296875,-1.7736702994555233,0.111204704990983,1.3045803770661353
1731409620400415200,2.173415283203125,-1.5822458103239536,0.3541752569645643,1.0138128856509923
1731409620410435000,2.18343505859375,-2.6841268555283544,0.8709457989394664,0.28034780420958993
1731409620420456200,2.193456298828125,-3.4287598121941087,1.253849137738347,-0.5868208142787218
1731409620430477000,2.20347705078125,-3.2269828558743,1.1992822657704352,-0.8372177168607712
1731409620440498400,2.21349853515625,-3.4428070422470567,0.8744125982671975,-0.6406640481472015
1731409620450518000,2.22351806640625,-3.519590422198176,0.3537830427765846,-0.14635083717405795
1731409620460539400,2.233539306640625,-3.2643566009789704,-0.22914251762926577,0.4068909481078386
1731409620470560300,2.243560302734375,-3.5666309903144833,-0.5501397276133299,0.7802133886128664
1731409620480581400,2.253581298828125,-3.9999446659237146,-0.4744353750705719,0.7377034496635199
1731409620490601200,2.263601318359375,-3.8702521180838345,-0.11913958964347839,0.5702788448005914
1731409620500622300,2.273622314453125,-4.0557589076042175,0.18719664230346678,0.26931378449797627
1731409620510643200,2.283643310546875,-4.286905166271329,0.40162089875042434,-0.14455167879760264
1731409620520663300,2.293663330078125,-4.262425974053144,0.5785241105765104,-0.392600556948781
1731409620530684200,2.30368408203125,-4.33311629782617,0.5383838233679533,-0.3537999939113855
1731409620540705300,2.313705322265625,-4.471712283089757,0.3919324484288692,-0.2559077749580145
1731409620550726100,2.32372607421875,-4.529270153567195,0.3865992707073688,-0.07426759773790836
1731409620560746200,2.333746337890625,-4.956932087025046,0.4502729937165975,0.1308721130132675
1731409620570767000,2.34376708984375,-5.770680080971122,0.7616051342546939,0.0856681126743555
1731409620580788200,2.353788330078125,-6.017910043954849,1.2276672332555054,-0.03046761897802353
1731409620590809300,2.363809326171875,-6.316463951462507,1.6293302175819873,-0.34586744734644886
1731409620600829000,2.373828857421875,-7.025709952926635,2.3331752367854115,-0.8521855688899755
1731409620610850000,2.38385009765625,-7.547036843031645,3.2343262043744323,-1.35949620860219
1731409620620871200,2.39387109375,-7.914017221033573,4.186419423693418,-1.8670307201981544
1731409620630891000,2.40389111328125,-8.218309964454173,5.011192669522762,-2.190871044653654
1731409620640912100,2.413912109375,-7.624508205246925,5.938426172873378,-2.0841168893307445
1731409620650933000,2.42393310546875,-5.613609112340211,5.9718625785291195,-1.8444547312527895
1731409620660954000,2.4339541015625,-2.846047017756104,3.979751188200712,-1.1369640490233897
1731409620670974000,2.443973876953125,-0.9328972282007336,1.6913912446975707,0.09584873042702674
1731409620680995000,2.4539951171875,33.93694811649322,1.4639567000299691,1.3510264864206314
1731409620691016000,2.464015869140625,46.71591998260021,-3.054781538128853,2.39291454295516
1731409620701037000,2.474037109375,10.044849684309959,2.3451637807428836,-0.40552433592975135
1731409620711057000,2.484056884765625,3.0685119573175905,7.06132253357768,-0.49821080293357367
1731409620721078000,2.494078125,1.97162857427001,4.888761637118458,-1.612376160171628
1731409620731099000,2.504098876953125,0.21897709744572638,2.8338550601810217,-0.850705559465289
1731409620741119000,2.514118896484375,-1.6091002072408795,1.7686697146892547,0.15678221481740473
1731409620751140000,2.52414013671875,-1.9166791327252983,-0.03663607847988605,1.0730623624771833
1731409620761161200,2.5341611328125,-0.32851153113693,-1.3706763587862252,1.6852870826035737
1731409620771182000,2.54418212890625,1.025066685593128,-1.9097002336233853,1.4281833758592606
1731409620781202200,2.5542021484375,1.9215353405848143,-1.6627029103517532,0.7326654554963111
1731409620791223000,2.56422314453125,2.3869176406279204,-0.23254560407102107,-0.5528162533462048
1731409620801244000,2.574243896484375,2.520564771312475,1.0515618938088416,-1.687645628428459
1731409620811264000,2.584263916015625,2.6771105470255017,1.3072785301089287,-2.0609218917042016
1731409620821285000,2.59428515625,3.0259134633019564,1.2233482010126113,-1.7439304102301596
1731409620831306000,2.604305908203125,2.9039211145758625,1.2076099491328,-1.0672130519270897
1731409620841326800,2.614326904296875,2.1048805681571365,0.8091963219910859,-0.3173614838302135
1731409620851347000,2.624346923828125,1.5513687337622046,0.2538900053948164,0.3105260848522186
1731409620861368000,2.6343681640625,1.1525833506986498,-0.2004196964919567,0.7427040344297885
1731409620871389000,2.644388916015625,0.8145286229297518,-0.45148353855013845,0.9460340654104947
1731409620881409800,2.654409912109375,0.6048761109292506,-0.43719197834730145,0.8508177876681089
1731409620891430000,2.664429931640625,0.5924760635614394,-0.138819857147336,0.361503407895565
1731409620901451000,2.674450927734375,0.6259679987967014,0.29254736056923863,-0.32412147948443887
1731409620911472000,2.68447216796875,0.6070261285699904,0.7582792047023773,-0.5817512559294701
1731409620921492200,2.6944921875,0.4586019922532141,1.073991752281785,-0.5903367134451866
1731409620931513000,2.70451318359375,0.15080650140866636,0.9698562550246715,-0.5394330401599406
1731409620941534000,2.714533935546875,-0.3098002547957003,0.6797194627285004,-0.34384967778325076
1731409620951555000,2.72455517578125,-0.6399417252220213,0.29223288779258727,0.050554129195213314
1731409620961575000,2.734574951171875,-0.6556523584425449,-0.11084113237559795,0.4177572100371122
1731409620971596000,2.744595947265625,-0.5970097614683211,-0.14595394681096077,0.34641689792275426
1731409620981617000,2.754616943359375,-0.10482464856505394,-0.08117956908345222,0.10371054984331131
1731409620991638000,2.764637939453125,0.036570027506351466,0.12206278361380099,-0.44913785220682617
1731409621001657900,2.774657958984375,0.19624394517727195,0.44618893927335734,-0.8191098132401704
1731409621011679000,2.784678955078125,-0.13684826481342316,0.628590748515725,-0.8748422218561172
1731409621021699800,2.794699951171875,-0.6933785702466965,0.5484025285571813,-0.7801029139757156
1731409621031720000,2.804719970703125,-0.8127835328280926,0.3660083180993795,-0.31473756506741046
1731409621041740800,2.81474072265625,-0.9932347925245761,0.17023206349909303,0.16023206301033496
1731409621051762200,2.82476220703125,-1.286813249707222,0.022299510091543195,0.40845337511897084
1731409621061783000,2.834782958984375,-1.2263584887444972,-0.15005845952033997,0.6538742428541183
1731409621071803100,2.84480322265625,-0.7218529695808887,-0.26394202833175656,0.9681260702311992
1731409621081824000,2.854823974609375,-0.46384508053846657,-0.14968027385771274,1.140727200949192
1731409621091845000,2.86484521484375,-0.3834281663905829,0.10300620096623897,1.2161959911704063
1731409621101866000,2.874865966796875,-0.45385319029092785,0.3257376825094223,1.2050690324783324
1731409621111886000,2.884885986328125,-1.7669547274649142,0.8880880723983049,0.5306242952823639
1731409621121907000,2.894906982421875,-2.6521535081624985,1.1597206552326678,-0.42915889401733875
1731409621131928000,2.904927978515625,-2.6169208667397497,1.0236147332191468,-0.8792337348133326
1731409621141948000,2.914947998046875,-2.6495722594976425,0.8983727350473404,-0.9666565822005271
1731409621151969000,2.924968994140625,-2.368907206032425,0.6276373933136463,-0.7258078446865082
1731409621161990000,2.934989990234375,-1.906426764910668,0.1706049884647131,-0.11740706676244735
1731409621172011000,2.945010986328125,-1.4907190347492694,-0.2377203763604164,0.4569540789157152
1731409621182030800,2.95503076171875,-0.9221950707919895,-0.356288888117671,0.7893243313074112
1731409621192052000,2.965052001953125,-0.9894728096425532,-0.11694237186014651,0.6075614044904708
1731409621202073000,2.975072998046875,-2.133359351405501,0.16915245156884193,0.1564233183771372
1731409621212094000,2.985093994140625,-3.384827146965265,0.42826925170123575,-0.4922258833050728
1731409621222114000,2.995114013671875,-3.92464421800673,0.8352472935706377,-0.7250918053716421
1731409621232135200,3.00513525390625,-5.585854843974113,1.1460697310209274,-0.9207657686412334
1731409621242156000,3.015156005859375,-7.7979428641796105,1.489320858389139,-1.3366285432338714
1731409621252176100,3.025176025390625,-9.075064156433939,2.005028739568591,-1.9462538945168255
1731409621262197000,3.035197021484375,-9.398657812651992,2.7714988495111466,-2.3064853827804326
1731409621272218000,3.045218017578125,-9.207839472720027,3.409281204742193,-2.395113514304161
1731409621282239000,3.055239013671875,-9.368132910528779,3.7044700197309255,-2.0492507431328297
1731409621292259000,3.065259033203125,-9.996385805392265,3.8309640637904403,-1.6940145789384842
1731409621302280000,3.075280029296875,-9.586519056344033,4.207837474775314,-1.4927391424000263
1731409621312300800,3.08530078125,-8.130572059768438,4.944952895417809,-1.2197908007919787
1731409621322322000,3.095322021484375,-6.867713686144351,5.315687657517194,-0.6753478235155344
1731409621332342000,3.105342041015625,-5.855109007239341,5.452626523223519,0.20070961934924125
1731409621342363000,3.11536279296875,-4.783128594779968,5.6120455162853,0.787217129895091
1731409621352384000,3.125384033203125,-3.057416270546615,5.565955965283512,0.9589391396909952
1731409621362404000,3.135404052734375,-3.211697316198051,4.723039744520187,1.5266075097322462
1731409621372425000,3.145425048828125,46.678351591706274,3.177971864467859,3.695532095515728
1731409621382446000,3.155446044921875,40.79299708380699,-2.8565280797600745,2.0337018763452765
1731409621392467000,3.165467041015625,12.241164965844154,4.345680595844984,-1.5913018079608678
1731409621402487000,3.175487060546875,5.926992340189218,6.5405678904026745,0.723974784040451
1731409621412508000,3.1855078125,1.2715849931761622,3.8824639494031667,-1.171290681517124
1731409621422529000,3.195529052734375,-0.877709009464085,2.7893881419450044,-1.1082435659736394
1731409621432550000,3.2055498046875,-0.6199348561123013,1.805502777045965,0.222584766548872
1731409621442570000,3.215570068359375,-1.3877113724783061,-0.5108259543567896,1.028237716844678
1731409621452590800,3.2255908203125,-1.718354654946923,-1.3765367752522228,0.8997247341781854
1731409621462612000,3.235612060546875,-0.7105588376283645,-0.9103811527490615,-0.17929858253002165
1731409621472631800,3.2456318359375,-0.18229922565072773,-0.398891181525588,-1.3420926538586615
1731409621482653000,3.25565283203125,0.32634090909957886,0.2979448356986046,-2.12256323210299
1731409621492674000,3.265674072265625,0.763490509609878,1.1499977181196213,-2.6658962023109196
1731409621502695200,3.275695068359375,1.0900018068403006,1.6115268498659132,-2.744067237228155
1731409621512715000,3.285715087890625,1.143019403539598,1.4724386971712111,-2.276086737385392
1731409621522736000,3.295736083984375,0.8375202069386839,0.9546171848386525,-1.7303665797799825
1731409621532757000,3.305757080078125,0.2541195763669908,0.6635141778588295,-1.3039555231660604
1731409621542777000,3.315777099609375,-0.5897463463366032,0.27275603390634057,-0.9745435360580682
1731409621552798000,3.3257978515625,-1.081906763190031,0.004581482571363449,-0.6672732381314039
1731409621562819000,3.335819091796875,-1.2111036364674568,0.09119242905378341,-0.5690957724958657
1731409621572840000,3.34583984375,-1.2866457841858268,0.3835860603660345,-0.7389163325846195
1731409621582860000,3.355860107421875,-1.2997156936392187,0.6674737291395664,-0.861549025040865
1731409621592881000,3.365880859375,-1.3983654529616236,0.8170037808716296,-0.8076140212357044
1731409621602902000,3.375902099609375,-1.5629612641394137,0.682342212447524,-0.6412351260334253
1731409621612923100,3.385923095703125,-1.6994472715117037,0.5702490341842175,-0.3047738049358129
1731409621622943000,3.39594287109375,-1.852913347518444,0.35066695658266545,0.01329728846848011
1731409621632964000,3.405964111328125,-1.9395266320884226,0.21384908690750598,0.19910159963071344
1731409621642985200,3.415985107421875,-1.834546792961657,0.13839724782109258,0.323558000382781
1731409621653005000,3.426005126953125,-1.648807802120596,0.08650690158605576,0.35097441509664057
1731409621663026200,3.436026123046875,-1.4131868822574614,0.08191548214256764,0.4027525331288576
1731409621673047000,3.446047119140625,-1.23283411449939,0.09009352790117263,0.3572521801918745
1731409621683068200,3.456068115234375,-1.0892461661674082,0.15454641858935356,0.24127777658104896
1731409621693088000,3.466087890625,-1.2011562429487705,0.14265665883123874,0.17940087386071682
1731409621703109000,3.476109130859375,-1.2606840983249246,0.1427671334683895,-0.016495207726955414
1731409621713130000,3.4861298828125,-0.9825288357235491,0.13298457512259482,-0.10294131903648376
1731409621723150800,3.49615087890625,-0.7855147098913788,0.13091478311121463,-0.03288520151376724
1731409621733171000,3.5061708984375,-0.7828761780813336,0.1244675066679716,0.01682078641951084
1731409621743192000,3.516192138671875,-0.7100504497148096,0.049423663860559464,0.03497252918183803
1731409621753213000,3.526212890625,-0.6446586707413197,-0.09847732536494731,0.10011047952473164
1731409621763233000,3.53623291015625,-0.7475085121020675,-0.1281406422227621,0.04117605999708175
1731409621773254100,3.546254150390625,-0.5974313478812575,-0.18365560869574546,-0.06125263334214687
1731409621783275000,3.55627490234375,-0.22906594526171684,-0.3202677266657352,-0.1092050556063652
1731409621793296100,3.566296142578125,0.17228490437567234,-0.4110778784036636,-0.009701894325017928
1731409621803316200,3.576316162109375,0.4337970752120018,-0.44554421162903307,0.16468436624407767
1731409621813337000,3.586337158203125,0.6291624109238386,-0.44971419079005714,0.2750818465054035
1731409621823358000,3.59635791015625,0.711072632369399,-0.33142098884284493,0.1972264534085989
1731409621833379000,3.606379150390625,0.7223109424814581,-0.23715280560553073,0.1091004261881113
1731409621843399200,3.616399169921875,0.8266349480479955,-0.3962999959886074,0.14571195474863052
1731409621853420000,3.626419921875,0.8484370300114155,-0.4003735290378332,0.14308219076693057
1731409621863441000,3.63644091796875,0.7834723904088139,-0.2664952199459076,0.05665536867976188
1731409621873461000,3.6464609375,0.7877905458688735,-0.18385902231335638,0.07732172461152076
1731409621883481900,3.65648193359375,0.7708426259383558,-0.334591435572505,0.07092413252890109
1731409621893503000,3.6665029296875,0.7563453140303492,-0.5334019433021545,0.1943938603311777
1731409621903523800,3.67652392578125,0.771780491310358,-0.6008206980586052,0.46802463124543425
1731409621913544000,3.6865439453125,0.6712722446396947,-0.6600760201036929,0.734437433604896
1731409621923565000,3.69656494140625,0.5522384534582495,-0.7191197452247142,0.8828706300109624
1731409621933586200,3.706586181640625,0.41542175282686944,-0.7096417227834463,0.9586322656989097
1731409621943607000,3.71660693359375,0.07409077986627817,-0.6816115600854158,1.1663605316385626
1731409621953627100,3.726627197265625,-0.15702245331406592,-0.7725006222784518,1.3108058274522423
1731409621963648000,3.73664794921875,-0.2571934308543801,-0.7884253366410732,1.364225867472589
1731409621973669000,3.746669189453125,-0.3654147361204028,-0.6646224313616752,1.300325349970162
1731409621983690000,3.75668994140625,-0.2683253579825163,-0.4953133279263973,1.1438564388856292
1731409621993710000,3.7667099609375,-0.01582651468515396,-0.3197211986988783,1.0763149345323442
1731409622003731000,3.77673095703125,0.13237316522598266,-0.22610417284667492,1.0299752081617712
1731409622013752000,3.786751953125,0.24882307739406823,-0.3721738549917936,0.8717357802733778
1731409622023772000,3.79677197265625,0.47627194284796714,-0.2660843010574579,0.5797708957672119
1731409622033793000,3.80679296875,0.5721966611206531,-0.044424248138070103,0.29556027864962814
1731409622043814000,3.81681396484375,0.5755003788411617,0.09846797301471233,0.03274462399929762
1731409622053835300,3.826835205078125,0.590970042912662,0.3098281657159328,-0.18983868124485015
1731409622063854800,3.836854736328125,0.5104781638324261,0.5189250896602868,-0.2994926496624946
1731409622073876200,3.846876220703125,0.385392233005166,0.5695932006239891,-0.3161220051631331
1731409622083897000,3.85689697265625,0.23078970031440257,0.6332119785755872,-0.17068156083226202
1731409622093918200,3.866918212890625,-0.36036066760122776,0.8664899885743856,0.16799363692253827
1731409622103938000,3.87693798828125,-1.1198530474856496,1.1915800208300351,0.5210089101970196
1731409622113959200,3.886959228515625,-1.0148723315760493,0.8103431539386511,0.702937548969686
1731409622123980000,3.89697998046875,-0.3016445669993758,0.036676410490274425,0.709272889471054
1731409622134000000,3.907000244140625,0.2539206927940249,-0.5206593661069869,0.4748468784809112
1731409622144021000,3.91702099609375,0.9501225037679075,-0.6035773032903671,0.21557897944003343
1731409622154042000,3.9270419921875,1.3071928976520895,-0.1850730742782354,0.12516922519654033
1731409622164063000,3.93706298828125,1.4096262671664357,0.009760931035876273,0.11171674616634845
1731409622174083000,3.9470830078125,1.4736089099943637,-0.4812503157824278,0.037466976346075535
1731409622184104000,3.95710400390625,1.6554454865694046,-1.0965829387962818,-0.15558920564055442
1731409622194125000,3.967125,1.5980477750897406,-1.0684031384944914,-0.4104465947628021
1731409622204146200,3.977146240234375,1.242121875065565,-0.64898471724689,-0.890100289003551
1731409622214166000,3.987166015625,0.6082955639839172,-0.3030471272736788,-1.3131839547604323
1731409622224187100,3.997187255859375,-0.14319763384014367,0.15831366216838358,-1.569697002135217
1731409622234208000,4.0072080078125,-0.8610720551788806,0.7258429159998894,-1.6990730313718319
1731409622244228000,4.01722802734375,-1.246544075421989,1.0218722734659909,-1.4705015916287898
1731409622254249200,4.027249267578125,-1.2013166942074893,0.7219669513493776,-0.9887953487724065
1731409622264270000,4.03727001953125,-0.9564262800872325,0.09529051202237605,-0.2525844757542014
1731409622274291000,4.047291015625,-0.731781658399105,-0.41262276975810525,0.3477855559274554
1731409622284311000,4.05731103515625,-0.5833586911261082,-0.6632336073517799,0.8698115342125297
1731409622294332000,4.067331787109375,-0.5170347458690404,-0.7350391988903283,1.3307888772949577
1731409622304353000,4.07735302734375,-0.44857320406138895,-0.7549579513251781,1.5932766151651738
1731409622314374000,4.087373779296875,-0.42099458452314137,-0.8370131341993808,1.6415511089906096
1731409622324394000,4.09739404296875,-0.3119146166011691,-0.708411304205656,1.3276292442202566
1731409622334414800,4.107414794921875,-0.014620646026730537,-0.5709878698527813,0.8738704542145133
1731409622344436000,4.11743603515625,0.32015900559425353,-0.7968442054182291,0.5620987532153725
1731409622354456000,4.1274560546875,0.7875941465139389,-1.266008946609497,0.3614081308275461
1731409622364477200,4.137477294921875,1.2045815412223337,-1.5782991185247897,0.2423778467774391
1731409622374498000,4.147498046875,1.14046036670655,-1.5915671808987855,-0.037922611159086225
1731409622384519200,4.157519287109375,0.8092305165216326,-1.4122715209782122,-0.5842986023247242
1731409622394539000,4.1675390625,0.5564426271498203,-1.1491519149452447,-1.090465040437877
1731409622404560100,4.17756005859375,0.47309302055090663,-0.6809376063466072,-1.2069552846163512
1731409622414581000,4.1875810546875,0.5934159747600555,-0.21594225979447362,-1.0906944652795791
1731409622424602000,4.19760205078125,0.19512889660745858,-0.15094225661754607,-1.1074848565608262
1731409622434622000,4.2076220703125,-0.6657911828801035,-0.27742753284871574,-1.4129364146277308
1731409622444643000,4.21764306640625,-1.254567222879827,-0.17778876248896122,-1.558210270220041
1731409622454664000,4.227663818359375,-1.2144795426413417,-0.06450432861447333,-1.1809975442782044
1731409622464684000,4.23768408203125,-1.0680512563169002,0.12390344304442405,-0.6537360034272074
1731409622474705000,4.247704833984375,-0.5568298729017377,0.4402870217531919,-0.10562485903203486
1731409622484726000,4.25772607421875,0.19178484687656164,0.8223883965194225,0.5835077442079782
1731409622494747000,4.267746826171875,0.7735998156920075,1.290345515486598,1.0764788929224014
1731409622504767000,4.27776708984375,0.8293000756040215,1.5919798533529042,1.2973214919790625
1731409622514788000,4.2877880859375,0.5046916893854737,1.516300050729513,1.6179925387486815
1731409622524809200,4.297809326171875,0.15216653771549463,1.1812491809517145,1.8540557955518364
1731409622534830000,4.307830078125,-0.2616784673139453,0.934653424218297,1.7625860108613967
1731409622544850200,4.31785009765625,-1.2745885589063166,1.5548083528220653,1.389504101113975
1731409622554871000,4.32787109375,-1.906252431257069,1.5368798974215983,1.341787533432245
1731409622564892200,4.33789208984375,-0.9374687738999724,-0.1023334162712097,1.6504995545998216
1731409622574912000,4.347912109375,-0.3010430939748883,-1.07476565926373,1.3424109260275958
1731409622584933000,4.35793310546875,0.11060907718539237,-1.2852192585140465,0.7930556267902255
1731409622594954000,4.3679541015625,0.47258974720388647,-0.9396195221930742,0.5239534392163158
1731409622604975600,4.3779755859375,0.4923369424641132,-0.3453425466895103,0.4992781399041414
1731409622614995700,4.38799560546875,0.10193740269094705,0.10488310075402259,0.46086306905299423
1731409622625016600,4.3980166015625,-0.32145869001597166,0.2589350138247013,0.47674335975199933
1731409622635037700,4.40803759765625,-0.5188599154695868,0.29301322451531886,0.598085135614872
1731409622645058600,4.41805859375,-0.5909691661298274,0.3434545409858227,0.6132707220479846
1731409622655078700,4.42807861328125,-0.5596168732717632,0.5262018026649952,0.6566694265305996
1731409622665099800,4.438099853515625,-0.6210591839671135,0.5352203909009695,0.9659861355930566
1731409622675121000,4.448120849609375,-0.5073591550290584,0.29862521917819973,1.3448495513513683
1731409622685141800,4.458141845703125,-0.06263531987220049,-0.06679682346582412,1.3929390439987182
1731409622695161900,4.468161865234375,0.4610945397213101,-0.2771294266849756,0.8886179414913058
1731409622705182700,4.4781826171875,0.9509420034572481,-0.18501403756737708,0.16397475666999817
1731409622715203800,4.488203857421875,1.1575649385035038,-0.03739186528325081,-0.19339637372642754
1731409622725223700,4.4982236328125,0.9944704717993735,-0.002482464465498924,0.006603343787789344
1731409622735244800,4.508244873046875,0.560449232442677,-0.03937280996739864,0.3553904779732227
1731409622745265700,4.518265625,-0.1164373449474573,0.06698094786107539,0.3797808228641748
1731409622755286800,4.528286865234375,-0.7337631876051426,0.3188701348274946,-0.007414660170674324
1731409622765306600,4.538306640625,-0.9687316349089146,0.4051905739307403,-0.46376901962757106
1731409622775327700,4.54832763671875,-0.8331009291917085,0.4272077599495649,-0.6955714041158556
1731409622785348600,4.5583486328125,-0.507958582226932,0.25645254935920236,-0.590389904937148
1731409622795368700,4.56836865234375,-0.17174919006377456,-0.030731822872161862,-0.43191082307398315
1731409622805389600,4.5783896484375,0.05324877510666847,-0.22454817557632922,-0.5080573664262891
1731409622815411000,4.588410888671875,0.22660013967007397,-0.4794838906317949,-0.6411793041929602
1731409622825431800,4.598431884765625,0.36069092246890067,-0.8448767071813345,-0.6966530618727207
1731409622835452000,4.608451904296875,0.42533465955406424,-1.070634258547425,-0.7618342668354511
1731409622845472800,4.61847265625,0.32107582817822694,-1.156818504050374,-0.7918950585782527
1731409622855494000,4.628493896484375,0.19294161569625137,-1.11710141068995,-0.7724538605272769
1731409622865514800,4.6385146484375,0.20234598837941883,-0.723562696108222,-0.8450561554014683
1731409622875534800,4.648534912109375,0.08721768020391464,-0.24550036271214484,-0.8944593609958886
1731409622885555700,4.6585556640625,0.1562865402549505,0.19691607228517533,-0.7877697953417897
1731409622895576800,4.668576904296875,0.2173287457168102,0.5346101500481367,-0.6074190734103322
1731409622905597700,4.67859765625,0.40237230163961646,0.8011819423615932,-0.3546820374429226
1731409622915617800,4.68861767578125,0.07115823354572057,0.9029162236958742,-0.1363517134681344
1731409622925638700,4.698638671875,-0.24753712923675775,0.9299357480466365,-0.12961013025343418
1731409622935659500,4.708659423828125,-0.15279548326879738,0.6977198143213987,-0.13825988517701626
1731409622945679600,4.7186796875,0.30232056656479833,0.5498340226650238,0.00637567251175642
1731409622955700700,4.72870068359375,0.7475301394119859,0.5424754765957593,0.12732552644759415
1731409622965721900,4.738721923828125,0.7428755916044115,0.5044827228099108,0.27440292433053254
1731409622975742700,4.74874267578125,0.28995237563997506,0.5938958672314882,0.33084669608622785
1731409622985762800,4.7587626953125,-0.3643123278364539,0.7935293817818164,0.11463204909116029
1731409622995783700,4.76878369140625,-0.8971344254240393,0.8722264863997697,-0.05304623827189207
1731409623005804800,4.7788046875,-1.0817395899295805,0.6718126351267099,0.06559533872157335
1731409623015825700,4.78882568359375,-0.7914706956863403,0.42489656039774415,0.28224545452445743
1731409623025845800,4.798845703125,-0.2629100549355149,0.25944997760951516,0.4959209384307265
1731409623035866600,4.80886669921875,0.1653305551931262,-0.04641045351922512,0.554371081572771
1731409623045887700,4.8188876953125,0.45325171726644037,-0.2960176670283079,0.45648514622971414
1731409623055907800,4.828907958984375,0.6014212943002581,-0.4578390450567007,0.2842494878232479
1731409623065928700,4.8389287109375,0.507997745193541,-0.3468763321280479,0.14935864068791269
1731409623075949600,4.848949462890625,0.26852847933918234,-0.13261749537587164,0.11589373959004878
1731409623085970700,4.858970703125,0.035246085426211354,-0.02982522942125797,0.2279464397124946
1731409623095990800,4.86899072265625,-0.1704080045878887,-0.1101549036771059,0.4026183853551745
1731409623106012000,4.879011962890625,-0.037566637328267094,-0.34784605394303797,0.6419080568589269
1731409623116032800,4.88903271484375,0.03056815674304962,-0.6262742882668971,0.9754542211621999
1731409623126054000,4.899053955078125,0.05911854392290115,-0.8779156379520893,1.198273673249781
1731409623136073700,4.90907373046875,0.07868570644110441,-0.9994318935990333,1.2947783833675086
1731409623146094800,4.9190947265625,0.023581951117515564,-0.9902759427189827,1.238325113131106
1731409623156115700,4.92911572265625,-0.00653992316275835,-0.9674398415327071,1.1801361051432788
1731409623166135800,4.9391357421875,0.02278904717415571,-1.0008832614511252,1.220704408505559
1731409623176156700,4.94915673828125,0.02780921342372894,-0.9158107765823602,1.216707740084827
1731409623186177800,4.959177734375,0.0006067337214946747,-0.6796130797445774,1.146338903351128
1731409623196198700,4.96919873046875,-0.11435995415151119,-0.4054880955725908,1.100074726434797
1731409623206218800,4.97921875,-0.2438637014210224,-0.1673673217177391,1.158995701958984
1731409623216239600,4.989239501953125,-0.3443459368675947,0.09226035054624081,1.3392303962953387
1731409623226260700,4.9992607421875,-0.5137675607666373,0.4939741882771253,1.4340525601536034
1731409623236281600,5.009281494140625,-0.977084160451591,0.9773714529603719,1.3973169668219982
1731409623246301700,5.0193017578125,-1.6726090950772166,1.4991232904791831,1.296650022458285
1731409623256322800,5.02932275390625,-2.1865727629378435,1.604654626008868,1.1486483493372797
1731409623266344000,5.039343994140625,-1.8011495502725243,1.019618941581249,1.23682522996217
1731409623276363800,5.04936376953125,-0.5319792170226574,0.37736557841598983,1.3111312600143252
1731409623286385000,5.059385009765625,0.7207157822445035,-0.21172785696983337,1.1460131785281003
1731409623296405800,5.06940576171875,1.3072998651579022,-0.6518839458197355,0.8575276605702936
1731409623306427000,5.079427001953125,1.1539365188732742,-0.9550620059967041,0.544427925837785
1731409623316446700,5.08944677734375,0.7794564327657222,-1.1657084974706173,0.3231130330942571
1731409623326467800,5.0994677734375,0.5034060334891081,-1.3533365169286726,0.19626798363998532
1731409623336488700,5.10948876953125,0.4163602027207613,-1.2386240960776804,0.12348112597912549
1731409623346509600,5.119509521484375,0.4075681167170405,-0.9569266308248042,0.009512363102287053
1731409623356529700,5.12952978515625,0.22747370763421057,-0.694990681618452,-0.17721710008084773
1731409623366550800,5.13955078125,0.16332243024110793,-0.5869996779769658,-0.29116628147438167
1731409623376571600,5.149571533203125,0.42815468541085716,-0.6074918463855982,-0.1628556895121932
1731409623386591700,5.159591796875,0.5444339171871543,-0.4970306532382965,-0.15824439632445572
1731409623396612600,5.169612548828125,0.376003934673965,-0.32387948742210865,-0.31293986799567935
1731409623406633700,5.1796337890625,0.170392514757812,-0.0690939944922924,-0.6215118961706757
1731409623416654800,5.18965478515625,-0.014249474626779555,0.1079413192808628,-0.9239408915460109
1731409623426675000,5.199675048828125,-0.13366495860219002,0.1425531984567642,-0.9304492505267262
1731409623436695800,5.20969580078125,-0.10001081854254007,0.14957564443945884,-0.7052014022484421
1731409623446716700,5.219716552734375,-0.11569997058361768,0.20567104114890097,-0.5140998614609241
1731409623456737800,5.22973779296875,-0.18814152193814515,0.27709318632781504,-0.3510468958109617
1731409623466758000,5.2397578125,-0.5037850959345698,0.37132162207663055,-0.16369944685995577
1731409623476778800,5.24977880859375,-0.5284560113325715,0.44235564472079275,0.01595715532749891
1731409623486799600,5.259799560546875,-0.3447527641028166,0.4199637801706791,0.15475012446790934
1731409623496819700,5.26981982421875,-0.15733780287355184,0.43956163008809085,0.23675737654715776
1731409623506840800,5.2798408203125,-0.04137362839579582,0.4381944333881139,0.14533669169545171
1731409623516861700,5.28986181640625,-0.07338204707503318,0.3286860109210014,-0.11314444088190793
1731409623526882600,5.299882568359375,-0.04188303922265768,0.08834989910423754,-0.2499246088951826
1731409623536902700,5.309902587890625,-0.044374271516501904,-0.11451134532094001,-0.16844488782137632
1731409623546923500,5.319923583984375,-0.0966214683651924,-0.2870230441898107,0.045259822179377074
1731409623556945000,5.32994482421875,-0.1561257967352867,-0.44493864695131774,0.34741964522451163
1731409623566965800,5.3399658203125,-0.19886866765767336,-0.48501054509878155,0.5874655419230461
1731409623576985900,5.34998583984375,-0.3253416689291596,-0.4362848003745079,0.6853861101880669
1731409623587006700,5.3600068359375,-0.3834653565958142,-0.29212358219921586,0.6492258325263858
1731409623597027800,5.37002783203125,-0.3974263696700334,-0.15115619162917135,0.5435767158359289
1731409623607048000,5.3800478515625,-0.33625001643449065,-0.04026303680539131,0.49799803696572775
1731409623617069000,5.390069091796875,-0.21449556811749934,0.09891513226032257,0.5079319864809513
1731409623627090200,5.400090087890625,-0.1539849853143096,0.282785260489583,0.5580614605233073
1731409623637111300,5.410111328125,-0.20818068588227032,0.38119653488099575,0.6098045072421431
1731409623647131100,5.420131103515625,-0.274416952855885,0.369280471637845,0.5232713021710514
1731409623657152300,5.43015234375,-0.29703415059447286,0.272386031550169,0.3832730488941073
1731409623667173000,5.440173095703125,-0.3943687356650829,0.23670564635992047,0.33817280119061466
1731409623677194200,5.4501943359375,-0.5326522939786315,0.17422200991809367,0.29774902086555954
1731409623687214000,5.460214111328125,-0.37691052812486886,-0.002037058785557747,0.3901470263168216
1731409623697235200,5.470235107421875,-0.16869769353866576,-0.08705869024991988,0.4539963981539011
1731409623707256000,5.480256103515625,0.047669805930554865,-0.25736849516034127,0.3765490013360977
1731409623717276200,5.490276123046875,0.2689969736337662,-0.5400526333630085,0.35250264757722616
1731409623727297000,5.500297119140625,0.3749120477840304,-0.733911656165123,0.3258236072272062
1731409623737318100,5.510318115234375,0.40835079152733084,-0.798571467602253,0.23901333878040312
1731409623747339000,5.520339111328125,0.3668175886556506,-0.7100240000993013,0.20091624783724546
1731409623757359000,5.530359130859375,0.19569091440439224,-0.46082186025977134,0.20729630426317452
1731409623767380200,5.540380126953125,-0.034354689544439314,-0.22996669349372387,0.1391249775737524
1731409623777401000,5.550401123046875,-0.17387100452333687,0.04373509683012962,0.04659340887069702
1731409623787422200,5.560422119140625,-0.26664982598572967,0.3396364440023899,-0.0269461668536067
1731409623797442300,5.5704423828125,-0.40278000565767286,0.4928910692155361,-0.07390314833968878
1731409623807463200,5.580463134765625,-0.3201695269882679,0.5267611901134253,0.0003442833930253982
1731409623817484000,5.590484130859375,-0.18433745348006486,0.44305648646652696,0.12005728901028632
1731409623827504000,5.600504150390625,-0.31423341493755574,0.44081659858524797,0.06046791270524263
1731409623837525200,5.610525146484375,-0.5870625140801071,0.5282394459724425,-0.10645692594200372
1731409623847546000,5.620546142578125,-0.7019409391477703,0.5260749614149332,-0.34765754563361406
1731409623857567000,5.63056689453125,-0.5225497098982333,0.28255963504016396,-0.5491255821347236
1731409623867587000,5.640587158203125,-0.12029577394127845,-0.12134148360192774,-0.5276993477463722
1731409623877608000,5.65060791015625,0.47012277256846424,-0.5300882887095213,-0.5133423210918903
1731409623887629000,5.660629150390625,0.7885466249331832,-0.9202823690384626,-0.4425713332980871
1731409623897650200,5.670650146484375,0.6519549652293324,-1.0382289495050907,-0.33656098207980395
1731409623907670000,5.680669921875,0.24959435402750968,-0.8967840045511722,-0.2830512179493904
1731409623917691100,5.690691162109375,-0.08705956703275441,-0.6569675326943397,-0.22206541884988545
1731409623927712300,5.700712158203125,-0.3313026231601834,-0.5133031581252813,-0.07023176635056734
1731409623937732000,5.710732177734375,-0.304932210367918,-0.35041619669198987,0.08528525083661079
1731409623947753200,5.720753173828125,-0.25553426547050473,-0.15975626219213007,0.12970716088712214
1731409623957774000,5.730774169921875,-0.2570622056901455,-0.005257189875841141,0.013752338759601116
1731409623967795200,5.740795166015625,-0.31009266187101603,0.012232874107360838,-0.11311433800458907
1731409623977815000,5.75081494140625,-0.4299170189082622,0.007267360654473304,-0.138379712164402
1731409623987836200,5.760836181640625,-0.4122647501006722,-0.07356500242650509,-0.37151246847361324
1731409623997857000,5.77085693359375,-0.23248569057732818,-0.20255203234553337,-0.5097933964386582
1731409624007878100,5.780878173828125,0.05552139621376991,-0.1913485012859106,-0.49253918703794475
1731409624017898000,5.79089794921875,0.13142857785224915,-0.14408464580774305,-0.39714346107542514
1731409624027919000,5.800919189453125,0.12460720739960669,-0.1197223579674959,-0.2995394114136696
1731409624037940000,5.81093994140625,-0.04648673362582922,-0.14978431875407694,-0.27863661637753245
1731409624047960000,5.8209599609375,-0.14051877001971005,-0.18179156838953495,-0.27527649229466916
1731409624057981000,5.83098095703125,-0.11888035418540238,-0.10809797114729881,-0.1670832440793514
1731409624068002300,5.841002197265625,-0.04451689485758543,-0.025145547172427177,0.00386252064704895
1731409624078023200,5.851023193359375,0.013128069381415843,0.06808218710124492,0.13385434369444846
1731409624088043300,5.861043212890625,-0.0034472178444266317,0.11360767447948455,0.15658815355002878
1731409624098064100,5.871064208984375,-0.06553191809654235,-0.1837929713398218,0.0918748583599925
1731409624108085200,5.881085205078125,-0.030397476351261138,-0.5081342310547828,0.07470978854745626
1731409624118106000,5.891106201171875,-0.010873568452894687,-0.6218155552923679,0.14785305843055246
1731409624128126200,5.901126220703125,-0.018004735507071018,-0.5112023864537477,0.1708244764342904
1731409624138147000,5.91114697265625,-0.08239479009211063,-0.2209673944801092,0.14828823497742413
1731409624148168200,5.921168212890625,-0.16929244456142187,0.05576046566665172,0.10897153911143541
1731409624158188000,5.93118798828125,-0.1304185240268707,0.2755611544549465,0.1329682085096836
1731409624168209200,5.941209228515625,-0.06074819095134735,0.45454643325209615,0.31096359948664903
1731409624178230000,5.95122998046875,-0.06527560524791479,0.5839093107461929,0.4409793879315257
1731409624188251100,5.961251220703125,-0.0068257543668150894,0.5068395150691271,0.48667614022344347
1731409624198271000,5.97127099609375,0.012470189994573593,0.23747487716674803,0.37802638041228054
1731409624208292000,5.9812919921875,0.0014060674056410789,0.04835808045566082,0.25787469111680983
1731409624218313200,5.991313232421875,0.005255728571116924,-0.004980711022019386,0.2205225733220577
1731409624228334000,6.001333984375,-0.008024608762562275,-0.045583939567208284,0.23257979860156774
1731409624238354200,6.011354248046875,0.04115151007771492,-0.025465865167975422,0.21456366491764783
1731409624248375300,6.021375244140625,0.18362521355748176,0.07387713711559772,0.12944909447282552
1731409624258396200,6.031396240234375,0.22469284474402665,0.11853577853143214,0.0437950103238225
1731409624268416300,6.041416259765625,0.2716030644789338,-0.06441781937479972,0.013907529321312903
1731409624278437000,6.05143701171875,0.22718173895031213,-0.1956131729930639,0.07355506555438042
1731409624288458000,6.0614580078125,0.12201748316735028,-0.14561550863683223,0.13432663738131523
1731409624298479000,6.07147900390625,0.08189034770131111,-0.06496610090732574,0.15398410853147507
1731409624308499200,6.081499267578125,0.09508271449059247,0.016045125871896743,0.06901362273246049
1731409624318520000,6.09152001953125,0.08975070581287145,0.09349953695237637,-0.05390928484201431
1731409624328541000,6.101541015625,0.1484074774429202,0.14121288976371288,-0.13121259701400995
1731409624338561000,6.11156103515625,0.12907938437759875,-0.014327800559997557,-0.04347352328449487
1731409624348582100,6.12158203125,0.021555705986917018,-0.19093758239746092,0.04114566485881805
1731409624358603300,6.131603271484375,-0.06722586253285408,-0.2958171760201454,0.07934943104684353
1731409624368624000,6.1416240234375,-0.10495587372928857,-0.34627369005978104,0.06961012732088566
1731409624378644200,6.151644287109375,-0.06594517507255077,-0.32130817562937736,0.04533990167826414
1731409624388665000,6.1616650390625,0.0012719196319580077,-0.2588946818143129,0.0001347322955727577
1731409624398686200,6.171686279296875,-0.010194354017078876,-0.21032383539080618,0.000602057546377182
1731409624408707000,6.18170703125,-0.03464928857684135,-0.17822247773110866,0.019806524232029915
1731409624418727200,6.19172705078125,-0.04566752619743347,-0.06724281366765499,0.03906009075641632
1731409624428748000,6.201748046875,-0.054180502998828886,-0.006239771172404289,0.06723287679553032
1731409624438769200,6.21176904296875,-0.04325549661964178,-0.023273323559761045,0.14039718946665525
1731409624448789000,6.2217890625,0.006518295852839947,-0.020702011767029762,0.15572101532667873
1731409624458810000,6.23181005859375,0.054796881331503386,-0.023743863680958748,0.08181056046336889
1731409624468831000,6.2418310546875,0.0893783653691411,0.00891103620827198,-0.008511807757616043
1731409624478852000,6.25185205078125,0.13681231671720742,0.010607318732142448,0.06099924310296773
1731409624488872000,6.261871826171875,0.1794622486591339,-0.04844342065155506,0.2650523276612162
1731409624498893000,6.27189306640625,0.16961100899130105,-0.08975275163948536,0.42027474581599233
1731409624508914200,6.2819140625,0.21622604517191646,-0.11058394274413585,0.4490010740846395
1731409624518935300,6.291935302734375,0.2177668448731303,-0.0983908161252737,0.44295098026543855
1731409624528955100,6.301955078125,0.2155599824786186,-0.09632803837656974,0.3724222767949104
1731409624538976300,6.311976318359375,0.1408998782917857,-0.07873276045322418,0.31893180188685655
1731409624548997000,6.3219970703125,-0.005173895506560802,-0.03805120597481727,0.31134733810722826
1731409624559017200,6.332017333984375,-0.12558452799916267,-0.037486557829380034,0.3482549270048737
1731409624569038000,6.3420380859375,-0.2089399798169732,-0.08202478773593902,0.39480303542912004
1731409624579059200,6.35205908203125,-0.22806202891618013,-0.0486246224373579,0.37287148186713454
1731409624589080000,6.362080078125,-0.013147650864720344,-0.022958850783109663,0.25050766948014497
1731409624599100200,6.37210009765625,0.15896628085821865,0.0062467854350805275,0.11148819810748099
1731409624609120800,6.382120849609375,0.36272476638406514,0.04244856415092945,0.07270692429244519
1731409624619142000,6.392141845703125,0.2449269467383623,0.024084639942646025,0.08955547550171614
1731409624629162800,6.402162841796875,0.1791921995460987,-0.004891279172897339,0.08008388280123471
1731409624639182800,6.412182861328125,-0.10895195762813091,-0.015940496453642844,0.034732290685176845
1731409624649203700,6.42220361328125,-0.05591711753308773,-0.03842237737476825,-0.00878682530671358
1731409624659224800,6.432224853515625,0.14530571203529835,-0.050072483158111566,0.020002046804130078
1731409624669244700,6.44224462890625,0.33625673843622206,-0.05375087940990925,0.0485766916424036
1731409624679265800,6.452265869140625,0.34353286691904067,-0.01683306137919426,0.011846505138278007
1731409624689286700,6.46228662109375,0.16752163549661636,0.020092355436086652,-0.03828179986029863
1731409624699307800,6.472307861328125,0.03342939139306545,0.09156652306318283,0.027498832300305365
1731409624709327600,6.48232763671875,0.0015159575209021568,0.1887649145334959,0.14276128824949263
1731409624719349000,6.492348876953125,0.03317921602427959,0.19121055411994456,0.2622597743332386
1731409624729369900,6.502369873046875,0.07650748561918735,0.1204939268618822,0.37165421503186225
1731409624739391000,6.512390869140625,0.10942454357594252,0.049044893676042554,0.44372225689887995
1731409624749410800,6.522410888671875,0.06145137078464031,-0.019563363125920295,0.5102127908945083
1731409624759432000,6.532431884765625,0.04351940825283527,-0.09523965861797332,0.592833206436038
1731409624769452800,6.542452880859375,0.02612403681576252,-0.1815758798122406,0.6808060889214277
1731409624779473000,6.552472900390625,-0.001846212388575077,-0.17935586567521095,0.7275318920001387
1731409624789493800,6.56249365234375,-0.10702771156728268,-0.12680267161726952,0.7016346496775746
1731409624799515000,6.572514892578125,-0.0173889416962862,-0.1059019224077463,0.6180953657254576
1731409624809535700,6.58253564453125,0.1581336294263601,-0.08918108923137187,0.5894076159015298
1731409624819555800,6.592555908203125,0.2829758146256208,-0.07876374011337757,0.6775804048731923
1731409624829576700,6.60257666015625,0.09754501295089721,0.02624853997826576,0.7132853399828076
1731409624839597800,6.612597900390625,-0.30683249103128907,0.17645897518992423,0.6320987566366791
1731409624849617700,6.62261767578125,-0.4083715420544147,0.30342297484874725,0.6368956355243921
1731409624859638800,6.632638671875,-0.386369553604722,0.39776130071282384,0.7219424014300108
1731409624869660000,6.642659912109375,-0.2005453686982393,0.5081505976676941,0.8247712000027299
1731409624879680800,6.6526806640625,0.034873744982481,0.517362078127265,0.8770219039827585
1731409624889700900,6.662700927734375,0.20866350096315145,0.36388884172737596,0.9137526750087738
1731409624899722000,6.672721923828125,0.3196972333014011,0.19762275924980638,0.9900795433640479
1731409624909742800,6.682742919921875,0.20336773264259098,0.050745852375030515,1.0621014080017805
1731409624919763700,6.692763671875,0.033308979883790016,-0.08142273018956184,1.0852774086669086
1731409624929783800,6.70278369140625,-0.1253849137738347,-0.21299159329533576,1.0213356823712587
1731409624939804700,6.7128046875,-0.21093904467970132,-0.3090285397708416,0.8530231887578964
1731409624949825800,6.72282568359375,-0.07005699430555105,-0.34419863735139367,0.5718751740813255
1731409624959846000,6.732845947265625,0.11800795526504516,-0.31780104429125783,0.2351584169179201
1731409624969866800,6.74286669921875,0.33109511788934465,-0.254994751766324,-0.03683072426915168
1731409624979887600,6.7528876953125,0.42851007471978664,-0.19684183800518512,-0.20925883650779722
1731409624989908700,6.76290869140625,0.2626552033916116,-0.053875967094302174,-0.2568856800794601
1731409624999928800,6.7729287109375,-0.045913317652046676,0.06137012224197387,-0.276250305762887
1731409625009949700,6.78294970703125,-0.25945874543786046,0.08325695987939834,-0.15825930163264273
1731409625019970800,6.792970703125,-0.4928486913785338,0.16461656170487404,-0.01705868682861328
1731409625029992000,6.802991943359375,-0.5622063052430749,0.19227321491539476,0.10804536417722702
1731409625040011800,6.81301171875,-0.32606063085347414,0.1059942768663168,0.21164017868638038
1731409625050033000,6.823032958984375,-0.20492869834899902,-0.09569967734515666,0.17459318131804466
1731409625060053800,6.8330537109375,-0.059302083796262735,-0.25322365044057366,-0.1126601644963026
1731409625070073900,6.843073974609375,0.2241118299856782,-0.36504444150328635,-0.5147480962365866
1731409625080094700,6.8530947265625,0.4057379786804318,-0.5236375051349401,-0.8938701629310846
1731409625090115800,6.86311572265625,0.349276379007101,-0.5321013820976018,-1.1491074912816286
1731409625100136700,6.87313671875,0.25993250042945143,-0.36996670033633705,-1.1775094099014998
1731409625110156800,6.88315673828125,0.07585194431990384,-0.12331366045773029,-1.0359311939567326
1731409625120177700,6.893177734375,-0.30302403865903615,0.11177812096476554,-0.762201931104064
1731409625130198800,6.90319873046875,-0.588554798464477,0.28965865339040753,-0.3975023575156927
1731409625140219600,6.9132197265625,-0.9167486419543623,0.38912966596782206,-0.03135843033790588
1731409625150239700,6.92323974609375,-1.0962880475029348,0.348394335475564,0.2836012530475855
1731409625160260600,6.933260498046875,-1.0142264348879455,0.3524666994810104,0.6580705255001783
1731409625170282000,6.943281982421875,-0.8015867237702011,0.3777916948735714,1.022728013512492
1731409625180301800,6.9533017578125,-0.40571547458767887,0.3939028717190027,1.1135901876986025
1731409625190323000,6.963322998046875,0.026323358780145644,0.30298984412848945,1.0236416212260722
1731409625200343800,6.97334375,0.20695903513282538,0.11808335858881473,0.8355120819866657
1731409625210365000,6.983364990234375,0.3379556513085961,0.01808569178879261,0.5459165569603442
1731409625220384800,6.993384765625,0.2340709139421582,-0.03318447672128677,0.23879589663743972
1731409625230406000,7.003406005859375,0.007661912930011749,-0.056502223944664,0.07826806555092335
1731409625240426800,7.0134267578125,-0.04353285225629806,-0.09705985978245735,0.12430734767019748
1731409625250448000,7.02344775390625,-0.2658978385746479,-0.12042203066945076,0.219874923068285
1731409625260467700,7.0334677734375,-0.20832067887485026,-0.1572802274674177,0.30085575470924375
1731409625270488800,7.04348876953125,-0.013739187017083166,-0.09189502436518669,0.33829145913422104
1731409625280509700,7.053509765625,0.0347474882543087,-0.14880816719830034,0.2663590263456106
1731409625290530600,7.063530517578125,-0.024353812272846696,-0.2247054119646549,0.04257540540099144
1731409625300550700,7.073550537109375,-0.0669721800327301,-0.3336608767241239,-0.21113222916424274
1731409625310572000,7.083572021484375,-0.09008154520243405,-0.3719359545826912,-0.41022681453227994
1731409625320593000,7.093593017578125,-0.10758446866720914,-0.31917291716635227,-0.5188794969528914
1731409625330613000,7.103613037109375,0.16296353380084036,-0.18531272825300693,-0.6232692612320184
1731409625340633900,7.1136337890625,0.53270168607831,-0.02244096438884735,-0.7831359980612993
1731409625350654700,7.12365478515625,0.7614733245685696,0.11185761594176291,-0.8875859680950641
1731409625360675800,7.13367578125,0.7911819418728351,0.33270518343448635,-0.8760369845986365
1731409625370696000,7.143696044921875,0.6922986660555005,0.5685580123573541,-0.7705804678708315
1731409625380716800,7.153716796875,0.5933797344028949,0.7564747856289148,-0.5667395647585391
1731409625390737700,7.163737548828125,0.5919570081233978,0.7804565497189759,-0.3294587488591671
1731409625400757800,7.1737578125,0.5330722729563713,0.6519558420121669,-0.15069968003332615
1731409625410779000,7.18377880859375,0.5187503176152706,0.44765725826025005,-0.12896364904344082
1731409625420799700,7.1937998046875,0.5314104772239923,0.10748246959745883,-0.3604536065816879
1731409625430820600,7.203820556640625,0.6371992946460843,-0.19902035108804703,-0.6788526167660951
1731409625440840700,7.2138408203125,0.7303539636835455,-0.32208617426455016,-0.9924322439700365
1731409625450861600,7.223861572265625,0.7375041276991366,-0.31446810047626494,-1.2834148394405842
1731409625460883000,7.233883056640625,0.7593906730756164,-0.12362813323438167,-1.3865917207986116
1731409625470903800,7.24390380859375,0.7418775204777717,0.22144261077642438,-1.3593325424730778
1731409625480924000,7.253923828125,0.6982128585353493,0.5133347223073244,-1.2018500704318285
1731409625490944800,7.26394482421875,0.5658969764545559,0.6603273645162582,-1.0340864428728818
1731409625500966000,7.2739658203125,0.4496431713804602,0.6528232724964619,-0.8714356282830238
1731409625510986800,7.28398681640625,0.6363491075575352,0.4788958616107702,-0.69846332616508
1731409625521006800,7.2940068359375,0.7940688954859971,0.307515212598443,-0.709673871487379
1731409625531027700,7.30402783203125,0.7664177952334285,0.2408048983722925,-0.783158794414997
1731409625541048800,7.314048828125,0.6264589971840381,0.21286299847960471,-0.7736018615186214
1731409625551068700,7.324068603515625,0.3358908277332783,0.2203437096238136,-0.6834124720275402
1731409625561089800,7.33408984375,0.06307195772379637,0.28268822985589503,-0.5440355655193329
1731409625571110700,7.344110595703125,-0.09051672174930572,0.2962392008244991,-0.5170370839565992
1731409625581131800,7.3541318359375,-0.019335984110832212,0.3793634742349386,-0.5856459252804518
1731409625591151600,7.364151611328125,0.03240297095477581,0.4942845694005489,-0.6571294452577829
1731409625601172700,7.3741728515625,-0.07318944711238146,0.5063672213822603,-0.6601613602995872
1731409625611193300,7.384193359375,-0.18602876756787298,0.31998481807112694,-0.5916027878582477
1731409625621214500,7.39421435546875,-0.39636926183253524,0.06264204187393188,-0.5758744728505611
1731409625631234300,7.404234375,-0.3369832991451025,-0.18900223042070866,-0.4752402617126703
1731409625641255400,7.41425537109375,-0.1605544268324971,-0.424423097667098,-0.33603111298680305
1731409625651276300,7.4242763671875,-0.07704553801864385,-0.5728396351993084,-0.3362690133959055
1731409625661296400,7.43429638671875,-0.16063479859232901,-0.6430524045884609,-0.3744114047855139
1731409625671317200,7.444317138671875,-0.27665099551826716,-0.6356745692968369,-0.3088140202373266
1731409625681338400,7.45433837890625,-0.4553980816453695,-0.5360954201698303,-0.1347983465462923
1731409625691359200,7.464359130859375,-0.6286614756643771,-0.4395873490512371,0.07108896770179271
1731409625701379300,7.47437939453125,-0.7310381465554237,-0.3873194016754627,0.20245324814617632
1731409625711400200,7.484400146484375,-0.7848769965097308,-0.39840661287903784,0.23360125060379502
1731409625721421600,7.494421630859375,-0.6445253997504711,-0.5015946001529693,0.17783435519635676
1731409625731442400,7.5044423828125,-0.4341536335647106,-0.635338469210267,0.06786299139261245
1731409625741462500,7.514462646484375,-0.30425533401966093,-0.7335954298228025,-0.06667641195654869
1731409625751483400,7.5244833984375,-0.1443953191921115,-0.7567471728295088,-0.12300211029052734
1731409625761504500,7.53450439453125,-0.1453393220439553,-0.7262438980162144,-0.09149404234886169
1731409625771524400,7.5445244140625,-0.33692923087030646,-0.6268506268501282,0.024468086302280423
1731409625781545500,7.55454541015625,-0.44627427946925163,-0.4735527470171451,0.2047504191726446
1731409625791566300,7.56456640625,-0.48950054999440906,-0.28738427871763705,0.37428456353545186
1731409625801587500,7.57458740234375,-0.5390197831839323,-0.18654606944024563,0.5262509025037289
1731409625811607300,7.584607177734375,-0.5333014055371285,-0.16185703386366365,0.6612111616134643
1731409625821628400,7.59462841796875,-0.5196998734250664,-0.2144534825414419,0.6754571291089058
1731409625831649300,7.604649169921875,-0.5938786238357424,-0.17442366997003556,0.539667433437705
1731409625841670400,7.61467041015625,-0.5799667106002568,-0.09762918410301208,0.46932606923282144
1731409625851690200,7.624690185546875,-0.4547346493005752,-0.06215104348659515,0.5290379028737545
1731409625861711400,7.63471142578125,-0.3751671915888786,-0.02171031202673912,0.6475725123614072
1731409625871732500,7.644732421875,-0.4284463618338108,-0.00914192235469818,0.7131546993404626
1731409625881752600,7.654752685546875,-0.5127358796313405,-0.05412848055064678,0.7190572013825177
1731409625891773400,7.6647734375,-0.6100745563551783,-0.13094459372758865,0.7694196073979139
1731409625901794600,7.674794677734375,-0.4578033892214298,-0.17892331947684287,0.8402958091318606
1731409625911815400,7.6848154296875,-0.39821722778677937,-0.13365326816439627,0.9294932649761438
1731409625921835500,7.69483544921875,-0.2995931874275207,0.0016571195572614669,0.9995832847684621
1731409625931856400,7.7048564453125,-0.4188473433613777,0.14097089770138263,1.0685632974922656
1731409625941877200,7.714877197265625,-0.589656914487481,0.18467559939324854,1.0682628532409668
1731409625951898400,7.7248984375,-0.5067267023444175,0.023818097960948942,1.0748726267695425
1731409625961918500,7.73491845703125,-0.22652648991197347,-0.17688041547238825,0.9952198288619518
1731409625971939300,7.744939208984375,0.12800240279585123,-0.2693763283401728,0.7729635636150837
1731409625981960200,7.754960205078125,0.27660160341858864,-0.2635673498004675,0.494442974832654
1731409625991980300,7.764980224609375,0.1273839786365628,-0.23963643911480903,0.2924205193191767
1731409626002001400,7.77500146484375,-0.13736527442485094,-0.20812135691046713,0.24889088193327186
1731409626012022300,7.785022216796875,-0.27129531370401383,-0.23313772474527358,0.36516952918767925
1731409626022043400,7.79504345703125,-0.30860797627121206,-0.3263034996986389,0.5220400068104267
1731409626032063500,7.8050634765625,-0.3028130262568593,-0.44686172396838664,0.6055041796997189
1731409626042084400,7.81508447265625,-0.33111528389453887,-0.5229945310562849,0.5932222057536244
1731409626052105500,7.82510546875,-0.32197716093212364,-0.4924333885759115,0.49079526598006484
1731409626062126300,7.835126220703125,-0.18427783224731684,-0.34254853205680846,0.3329924759432673
1731409626072146400,7.845146484375,-0.06511281590163708,-0.19287059628665446,0.2807376803100109
1731409626082167300,7.855167236328125,0.07654431049823761,-0.06118132167160511,0.38590485870242114
1731409626092188400,7.8651884765625,0.09129413586258887,0.030247254225611683,0.49726241616755723
1731409626102209300,7.875209228515625,-0.052855391874909396,0.07608896794617176,0.5123503874450922
1731409626112229400,7.8852294921875,-0.041216976529359815,0.026177228307723996,0.44964989338219163
1731409626122250200,7.895250244140625,0.042725043004751204,-0.05293196424245834,0.2977735707849264
1731409626132271400,7.905271240234375,0.07341565708369016,-0.040294016465544695,0.11146890888512134
1731409626142291200,7.915291259765625,-0.00005523731857538223,0.03779869251847267,-0.03453764489591121
1731409626152312300,7.925312255859375,0.1103986493051052,0.11607727946341037,-0.13871844259947538
1731409626162333400,7.93533349609375,0.28048750494122504,0.17105039414465426,-0.21542788053154943
1731409626172354600,7.9453544921875,0.4636205510675907,0.1733493187367916,-0.19832447777837514
1731409626182374400,7.95537451171875,0.3750710377380252,0.09576397475302219,-0.08313625610917806
1731409626192395500,7.9653955078125,0.11293752013295888,0.007049918511509895,-0.002190203520655632
1731409626202416400,7.97541650390625,0.04797843348830938,-0.07104922021329403,0.03682107965797186
1731409626212437500,7.9854375,0.14954875643253326,-0.1272995152235031,0.020135610055923462
1731409626222457300,7.995457275390625,0.2259717786386609,-0.08231938676834107,-0.055553544917702674
1731409626232478500,8.005478515625,0.24306465999782084,0.04035363769829273,-0.0374006331115961
1731409626242499300,8.015499267578125,0.2165583458662033,0.15183599058687686,0.05597030902504921
1731409626252519400,8.02551953125,0.156550451888144,0.24668928023576736,0.04363689715266227
1731409626262540300,8.035540283203124,0.14753069460839033,0.3195972800582647,-0.06081599549055099
1731409626272561400,8.0455615234375,0.10585691422224044,0.3385147464960813,-0.13582944315969944
1731409626282582300,8.055582275390625,0.08152852865159511,0.26201310609579087,-0.12910101168751717
1731409626292602400,8.065602294921876,0.12185498608201742,0.14021160376667977,-0.09092062637507915
1731409626302623200,8.075623291015624,0.10834931555986403,0.10930442432761192,-0.12194646375775336
1731409626312644600,8.08564453125,0.10274725776910781,0.07956979579925537,-0.21446926463246344
1731409626322665500,8.09566552734375,0.1366965813830495,0.07709726820588111,-0.31093291208744045
1731409626332685600,8.105685546875,0.20753011301904917,0.06974339831173419,-0.3886141176611185
1731409626342706400,8.11570654296875,0.17498510324507952,0.06540273875892162,-0.4642781381934881
1731409626352727300,8.125727294921875,0.19323095403164625,0.035004093363881106,-0.49903673236370083
1731409626362748400,8.13574853515625,0.241225461871922,-0.011613865426182746,-0.4618269456490874
1731409626372768500,8.1457685546875,0.23302461975961922,-0.04914250883162021,-0.3891489551901817
1731409626382789400,8.155789306640624,0.25394173558205363,-0.003996376159787178,-0.3250166747584939
1731409626392810200,8.165810302734375,0.33726854582726956,0.06860065801739693,-0.2743643458858132
1731409626402830300,8.175830322265625,0.33683746093362565,0.06590192045271397,-0.20698475409597158
1731409626412851500,8.1858515625,0.30116233644038437,0.0053548050314188,-0.18360417076945304
1731409626422872300,8.195872314453124,0.26023820537775755,-0.06032382805943489,-0.24130291102230547
1731409626432893200,8.20589306640625,0.226102127020061,-0.13805880964696407,-0.36956805640757084
1731409626442913300,8.215913330078125,0.1467231776177883,-0.17541794170439243,-0.49388884808123107
1731409626452934100,8.22593408203125,0.04261193801909685,-0.16665946570932863,-0.5424611558094621
1731409626462955500,8.23595556640625,-0.0044952655926346775,-0.10531097077727317,-0.4810480712085962
1731409626472976400,8.245976318359375,0.044917292352020737,-0.06876257058084011,-0.2991819762781262
1731409626482996500,8.25599658203125,0.04709171378165483,-0.08740940338373183,-0.10724252336174249
1731409626493017300,8.266017333984376,-0.0047989247143268585,-0.08334522268474101,-0.02693009250164032
1731409626503038500,8.27603857421875,0.02018091050237417,-0.051286535122990605,-0.11827391272485256
1731409626513059300,8.286059326171875,0.0638917496740818,0.00949789618551731,-0.24607290190309283
1731409626523079400,8.296079345703125,0.06276683729737997,0.042080315360426904,-0.2590919579520821
1731409626533100300,8.306100341796874,-0.010903963591158389,0.021536709025502202,-0.21304215443879365
1731409626543121400,8.316121337890625,-0.05287789596766233,-0.04342062405347824,-0.09832681097835302
1731409626553141200,8.326141357421875,-0.026476211254298686,-0.11857201888859271,0.04925239894688129
1731409626563162400,8.336162353515626,-0.018869827903807163,-0.15182371562719343,0.16865239309221505
1731409626573183200,8.346183349609374,-0.10417261439710855,-0.10921382343471049,0.26394787355065347
1731409626583204400,8.356204345703125,-0.06418079574853182,-0.03345277226865291,0.3279918911769986
1731409626593224200,8.36622412109375,0.07273235099464655,0.046535541203618046,0.35752544417530296
1731409626603245300,8.376245361328126,0.20663959392011164,0.15874328575730323,0.4053954488530755
1731409626613270500,8.3862705078125,0.13590601552724837,0.12378186249136924,0.49694531304240225
1731409626623291400,8.39629150390625,0.14707009135931728,0.11714110930263995,0.5141308411210775
1731409626633311500,8.4063115234375,-0.02529839964658022,0.14772680170238017,0.5327598460063337
1731409626643332600,8.41633251953125,-0.2341296583920717,0.2172387293457985,0.5437102790877223
1731409626653353500,8.426353515625,-0.2670820799231529,0.29824937160313125,0.5749132266029715
1731409626663373600,8.43637353515625,-0.11736439666450023,0.3852092776536941,0.6033551849722862
1731409626673394400,8.44639453125,0.06685293756723404,0.42657004656791686,0.6405255164593457
1731409626683415600,8.45641552734375,-0.008515899410843849,0.393342899748683,0.6464356172859669
1731409626693436700,8.466436767578125,-0.1904816553235054,0.2593704826325178,0.567045854228735
1731409626703456800,8.476456787109376,-0.25355185948163267,0.08354396012723446,0.4590454982370138
1731409626713477600,8.4864775390625,-0.12355769834667443,-0.06182137314081192,0.31378011821210383
1731409626723498500,8.49649853515625,0.06400865405201911,-0.1779021597355604,0.1327054659202695
1731409626733519600,8.50651953125,0.21217647752016783,-0.2253764430940151,-0.03776303668320179
1731409626743539500,8.51653955078125,0.2912912230283022,-0.2522206108778715,-0.12502192568033932
1731409626753560600,8.526560546875,0.2896294272959232,-0.270341958501935,-0.09901011706739664
1731409626763581400,8.53658154296875,0.2076034705162048,-0.38480654207170006,0.04602437681108713
1731409626773602600,8.5466025390625,0.04130523933470249,-0.4653688560396433,0.2482347561120987
1731409626783622400,8.556622314453126,-0.10231061991751193,-0.4126689469873905,0.35609833398163315
1731409626793643500,8.5666435546875,-0.21871552390009164,-0.2676408828496933,0.3661182082146406
1731409626803664400,8.576664306640625,-0.1991539143398404,-0.10754735152721405,0.27755028244554997
1731409626813684500,8.5866845703125,-0.06273030467927455,-0.01592763697206974,0.16953443662375212
1731409626823705300,8.596705322265626,0.04557341817319393,-0.0046855274677276605,0.048424423690140245
1731409626833726700,8.606726806640625,0.1083969540938735,-0.09393266767263411,-0.02327536938637495
1731409626843747600,8.61674755859375,0.14989830052256584,-0.2244096438884735,-0.12381371893435716
1731409626853767700,8.626767578125,0.24156506908982991,-0.37744448887109755,-0.15513357082754373
1731409626863788500,8.63678857421875,0.35098318292498587,-0.4679512737482786,-0.0730155518501997
1731409626873809700,8.6468095703125,0.23830431372821329,-0.43785950234532356,0.019245383217930793
1731409626883830500,8.65683056640625,0.0821542593345046,-0.3727618840128183,0.08226414944976568
1731409626893850600,8.6668505859375,-0.03202916920632124,-0.26377427054941655,0.1587052918344736
1731409626903871500,8.67687158203125,-0.042886955568194385,-0.09327040437161922,0.1849015171036124
1731409626913892600,8.686892578125,0.006083411566913128,0.07624561981260776,0.19605010310560464
1731409626923912400,8.696912353515625,0.1262842007011175,0.18585224195718764,0.26151129405349494
1731409626933933600,8.70693359375,0.1297135906279087,0.25435002412199975,0.3232426508232951
1731409626943954400,8.716954345703124,0.0039747488498687745,0.3066436904609203,0.32009500044733286
1731409626953975600,8.7269755859375,-0.0638303748756647,0.28442601343393326,0.35863925063610075
1731409626963995400,8.736995361328125,-0.1101028812289238,0.2554401574462652,0.46033583030849695
1731409626974016500,8.7470166015625,-0.14062602978646754,0.2339209840774536,0.5491650373622775
1731409626984037600,8.75703759765625,-0.14443711250722407,0.2311713931083679,0.5769166753798722
1731409626994058500,8.76705859375,-0.11722001975774764,0.20852584605813027,0.5004769942998886
1731409627004078600,8.77707861328125,-0.03830898012816906,0.19479191973805426,0.32027590997219085
1731409627014099700,8.787099609375,0.04527881914079189,0.17430559654831884,0.16586568498313425
1731409627024120600,8.79712060546875,0.11608575503081082,0.09039923284947872,0.08555529994964599
1731409627034141400,8.807141357421875,0.12815233266055584,0.0015969138026237486,0.11241495756357908
1731409627044161500,8.81716162109375,0.07442951030135155,-0.029071196183562277,0.2026265588864684
1731409627054182700,8.8271826171875,-0.0014998831689357758,-0.07860708824694156,0.25540479387193915
1731409627064203500,8.83720361328125,0.012490648260712623,-0.09192308141589164,0.2795125224292278
1731409627074223600,8.8472236328125,0.08099369112253188,-0.13820435559749603,0.26276509350687266
1731409627084244500,8.857244384765625,0.10707271975278854,-0.20556699625253677,0.20331161854118107
1731409627094265300,8.867265380859376,0.05642155992388725,-0.24212416427731512,0.12145868024080991
1731409627104286500,8.877286376953125,0.01967325324118137,-0.283421220305562,0.07218669981062412
1731409627114306600,8.887306640625,-0.09895195713937283,-0.29168519078195093,0.02994213379919529
1731409627124327700,8.89732763671875,-0.20860124938189983,-0.26260347320437427,0.01064472813308239
1731409627134348500,8.9073486328125,-0.14586568400561808,-0.17726795348525046,0.05923953995406627
1731409627144369700,8.91736962890625,-0.04592354678511619,-0.07732932339608668,0.15328414356857537
1731409627154389500,8.927389404296875,-0.045912440869212146,0.02876782932281494,0.22431641264706847
1731409627164410600,8.93741064453125,-0.059009822851419445,0.06202654032409191,0.24866817909330127
1731409627174431500,8.947431396484374,0.09716039754748344,-0.025736498802900312,0.27567279813587664
1731409627184452600,8.95745263671875,0.1244067163914442,-0.07330372114181519,0.25860125182569027
1731409627194472400,8.967472412109375,-0.11253273872435092,-0.12554536503255367,0.17843991987407207
1731409627204493600,8.97749365234375,-0.21581366497874258,-0.1596633232116699,0.16116905159950257
1731409627214514400,8.987514404296874,-0.21896832961738108,-0.09529343463182449,0.19039280799627303
1731409627224534500,8.997534423828125,-0.12710194682478904,0.06388882706463336,0.22733196107596157
1731409627234555400,9.007555419921875,-0.16410978122651576,0.26989947543144227,0.31184622754007574
1731409627244576500,9.017576416015626,-0.4012760308355093,0.3936918593168258,0.34402737243771553
1731409627254597400,9.027597412109374,-0.3990373119980097,0.2756821504861116,0.35031478214412926
1731409627264617500,9.037617431640625,-0.06106792442500591,0.04009060284793377,0.2668070623740554
1731409627274638600,9.047638671875,0.3595367839977145,-0.10786182430386543,0.0836813227713108
1731409627284659700,9.05765966796875,0.46415334277004,-0.29555414116978646,-0.10558452702164649
1731409627294680600,9.0676806640625,0.4756856673926115,-0.35897476620078084,-0.2719292276933789
1731409627304700700,9.07770068359375,0.16504852338135242,-0.3288450008749962,-0.28169395812153813
1731409627314721500,9.087721435546875,-0.08840104476958513,-0.24849720644056797,-0.25711627396494147
1731409627324742700,9.09774267578125,-0.009415770860016345,-0.1691717407912016,-0.1727268029242754
1731409627334763500,9.107763427734374,0.22743688275516033,-0.11415595601201056,-0.030539515170454976
1731409627344783600,9.11778369140625,0.17727321418225764,-0.10998130067586898,0.03654167819470167
1731409627354804500,9.127804443359375,-0.013584873238205909,-0.13875672878324985,0.0027849545434117315
1731409627364825600,9.13782568359375,-0.04940758950859308,-0.1314601420342922,-0.10004559759497642
1731409627374845400,9.147845458984374,-0.12345832962542772,-0.09276830006837844,-0.1978907625362277
1731409627384866600,9.157866455078125,-0.12215601485520601,-0.08610650409162043,-0.31566724713295696
1731409627394887400,9.167887451171875,-0.047838440495729447,-0.1275005907535553,-0.3014157266795635
1731409627404908500,9.177908447265626,0.012683540484309195,-0.18553017039597033,-0.26857436430752274
1731409627414928400,9.187928466796874,0.00857376707792282,-0.1946551416158676,-0.21359598892927167
1731409627424949800,9.19794970703125,0.0003653261810541153,-0.2394277648001909,-0.08392068448513745
1731409627434970600,9.207970703125,0.046234512430429454,-0.2537333535283804,0.04551233563572168
1731409627444991500,9.217991455078124,0.02122282077074051,-0.21571955695450304,0.07539134107083081
1731409627455011600,9.228011474609374,-0.02810205889046192,-0.18413433212339878,0.017166238856315612
1731409627465032700,9.23803271484375,-0.045133857712149617,-0.15131518158316612,-0.041380934919416905
1731409627475053600,9.248053466796875,-0.03686111940741539,-0.13851649028658866,-0.016563889048993585
1731409627485074400,9.258074462890624,0.031125790625810622,-0.2317471471697092,0.11247370201349258
1731409627495094500,9.268094482421875,0.09504764317721127,-0.3116302467018366,0.1915112906321883
1731409627505115400,9.278115478515625,0.043693011254072184,-0.34582536177039147,0.22438480170816183
1731409627515136500,9.288136474609376,0.05332271712571382,-0.3583621872603893,0.20502952837496996
1731409627525156600,9.298156494140626,0.22063772413432597,-0.29605741451680656,0.13551292455643416
1731409627535177500,9.308177490234375,0.2966784690245986,-0.16193652884066104,0.05045592951774597
1731409627545198300,9.3181982421875,0.28037644578218457,-0.0099906481385231,-0.022761866906285285
1731409627555219700,9.3282197265625,0.21404256365299223,0.051771103769540784,-0.005186754988133907
1731409627565239600,9.338239501953124,0.05362257685512304,0.1345551854401827,0.08802022875845432
1731409627575260700,9.3482607421875,-0.1927560299962759,0.22899521811306475,0.2279106377467513
1731409627585281500,9.358281494140625,-0.38881227058172224,0.30948446684479713,0.38481530990004537
1731409627595302700,9.368302734375,-0.44416941614449024,0.3749596863180399,0.5423229163825511
1731409627605322500,9.378322509765624,-0.4394555393651128,0.4370125301271677,0.6540726880356669
1731409627615343400,9.38834326171875,-0.4500216493040323,0.4654840068519115,0.6406561571016908
1731409627625364200,9.3983642578125,-0.27519904314428567,0.3753302731961012,0.5395636808022857
1731409627635385300,9.40838525390625,0.06364391239285469,0.17766542837023733,0.38403000474125143
1731409627645405200,9.4184052734375,0.3459972112059593,-0.019195698857307434,0.22828765436559914
1731409627655426300,9.42842626953125,0.4538812473416328,-0.12391980965733528,0.0647761312931776
1731409627665447400,9.438447509765625,0.411310225854814,-0.18504501722753047,-0.07550444605648517
1731409627675467500,9.448467529296876,0.32098142789304257,-0.24326515100598334,-0.03885989200919866
1731409627685488400,9.45848828125,0.2597416540324688,-0.22208090867996214,0.13397329389899967
1731409627695509500,9.468509521484375,0.2194242566913366,-0.14039806624948978,0.3139049136355519
1731409627705530400,9.4785302734375,0.1019721817433834,-0.021827800926566124,0.3825175543516874
1731409627715550500,9.488550537109376,0.07012392206192017,0.12353110260069369,0.3989543098896742
1731409627725571300,9.4985712890625,0.01066255605071783,0.19933365482091903,0.33575200378447767
1731409627735592400,9.508592529296875,-0.0742334032073617,0.19592589220404624,0.1675306955859065
1731409627745613300,9.51861328125,-0.07049801607131957,0.09752981538176536,-0.028292320765554903
1731409627755633400,9.52863330078125,0.00184825821518898,-0.002128244200348854,-0.1597030707001686
1731409627765654300,9.538654296875,0.07539630950689315,-0.08423661856651306,-0.2330588142901659
1731409627775675400,9.54867529296875,0.10766834755837917,-0.1354033267021179,-0.21897826648950575
1731409627785696300,9.5586962890625,0.10781623159646987,-0.17087620662152767,-0.11048808115422724
1731409627795716400,9.56871630859375,0.11559329533874987,-0.14250351409614084,-0.023271277733147144
1731409627805737200,9.5787373046875,0.10645254202783107,-0.07681552865505219,0.061652738575637335
1731409627815758600,9.588758544921875,0.02778700159192085,-0.07066402028799057,0.13885989689677952
1731409627825778400,9.5987783203125,0.010225041416287422,-0.14995266105830668,0.1941980454981327
1731409627835799600,9.608799560546874,0.08816226757764815,-0.2735205885380506,0.17066811682879923
1731409627845820400,9.6188203125,0.17400369099229573,-0.3719657651990652,0.18911913479864595
1731409627855841300,9.62884130859375,0.08660627030730247,-0.4073749322324991,0.2351598782226443
1731409627865861400,9.638861328125,-0.14845862310826777,-0.3718096978545189,0.29429303519278766
1731409627875882500,9.648882568359374,-0.03284253141582012,-0.3516962996304035,0.33777941795885563
1731409627885903400,9.6589033203125,0.09509791205972433,-0.21822774038314818,0.23561171364337205
1731409627895924200,9.66892431640625,0.2078787803262472,-0.08282675176858902,0.13554244291186332
1731409627905944300,9.6789443359375,0.14195084864944219,-0.06429916143119335,0.07742167785465717
1731409627915965400,9.68896533203125,-0.03305179025232792,-0.008817512705922126,0.08249152846485376
1731409627925986300,9.698986328125,-0.4472229584962129,0.01957096191048622,0.1437824479907751
1731409627936007200,9.709007080078125,-0.47307022419720884,-0.00897591813802719,0.249026783272624
1731409627946027300,9.71902734375,-0.35167934849560256,0.03258884891569614,0.3005515110656619
1731409627956048400,9.72904833984375,-0.18972469947636125,0.16833295187950134,0.2945262594267726
1731409627966069500,9.739069580078125,-0.25803748046308755,0.31666005756258964,0.3596908055156469
1731409627976089600,9.749089599609375,-0.4158586829394102,0.34061434912383554,0.44465223122537134
1731409627986110500,9.7591103515625,-0.3212269270867109,0.24885961001217363,0.4626113740250468
1731409627996131300,9.76913134765625,-0.04471446325629949,0.10789455752968788,0.3620437983825803
1731409628006152400,9.77915234375,0.2581330497920513,-0.032875849163532256,0.2511673024326563
1731409628016172300,9.78917236328125,0.3849456582814455,-0.08696341318190097,0.11977291911095381
1731409628026193400,9.799193359375,0.32496260648369785,-0.12546177840232847,0.0035071313381195065
1731409628036214300,9.80921435546875,0.24772505302429199,-0.1665612660318613,-0.05000643218457698
1731409628046235400,9.8192353515625,0.24494039074182508,-0.14105857598483562,-0.05287205074876546
1731409628056255200,9.829255126953125,0.189374570864439,-0.12575637743473053,0.01753916382193565
1731409628066276400,9.8392763671875,0.12010814241468906,-0.09716974989771843,0.08815437653213738
1731409628076297200,9.849297119140624,0.0795706725820899,-0.08130114963650703,0.1086427455484867
1731409628086318600,9.859318603515625,0.06794190184772014,-0.053635144075751304,0.07899696434736252
1731409628096338200,9.869338134765625,0.018029577687382697,0.013708207356929777,-0.01583177538216114
1731409628106359600,9.879359619140626,-0.018490765458345413,0.06605857231914997,-0.13054565753787756
1731409628116380400,9.88938037109375,-0.054659810948371884,0.09752221659719944,-0.21929010891765355
1731409628126400500,9.899400390625,-0.052692310267686844,0.05968143850266933,-0.25692338174134494
1731409628136421400,9.90942138671875,0.06840484318435192,-0.0038438159465789793,-0.17652911781668662
1731409628146442500,9.9194423828125,0.0778121384769678,0.01750876868367195,-0.1762900483638048
1731409628156463400,9.92946337890625,0.015747896490991113,0.04979074360728263,-0.1634255983546376
1731409628166483500,9.9394833984375,-0.04444616770893335,-0.015203414350748061,-0.012165654090046881
1731409628176504300,9.94950439453125,-0.14895575897544622,-0.05267185200154781,0.11440437781512737
1731409628186525400,9.959525390625,-0.09531360063701867,-0.055953357890248294,0.17789368416815995
1731409628196546300,9.96954638671875,-0.019014497071504592,-0.04165244533717632,0.23830256016254422
1731409628206566400,9.97956640625,0.08612550105303525,-0.03914718451797962,0.2205669969856739
1731409628216587300,9.989587158203125,0.15682342361062765,-0.06429623882174491,0.16353110455572603
1731409628226608400,9.9996083984375,0.17458353670686483,-0.08918342731893063,0.1277539809927344
1731409628236629500,10.00962939453125,0.12650573449730873,-0.09581658172309399,0.08515782506465912
1731409628246649300,10.0196494140625,0.012996844217181206,-0.0414005164027214,0.03428542370051146
1731409628256670500,10.02967041015625,-0.07011866136491299,0.006303484058380127,0.029750702880322933
1731409628266691300,10.03969140625,-0.0904436565130949,0.03536825050115585,0.01856061582416296
1731409628276711400,10.04971142578125,-0.0796206492036581,0.07090484330654144,-0.021071721862256525
1731409628286732500,10.059732666015625,-0.06632452977895736,0.055126843938231467,0.02818915265202522
1731409628296753400,10.06975341796875,-0.04309679892659187,0.015974398723244666,0.11111118148863315
1731409628306774300,10.079774169921874,-0.035686230409145356,-0.038380876320600506,0.1406675308406353
1731409628316794400,10.08979443359375,0.040219782185554505,-0.05983575228154659,0.09566665185838938
1731409628326815500,10.0998154296875,0.16172376287281512,-0.06396949108541011,0.031056817042827603
1731409628336836400,10.10983642578125,0.2241746660888195,-0.015256021320819853,-0.041732817097008226
1731409628346857200,10.119857177734374,0.23041677534878252,0.05742810661792755,-0.055443654802441594
1731409628356877300,10.129877197265625,0.12357961791753769,0.09574527005255222,-0.00284516029804945
1731409628366898200,10.139898193359375,0.0033422961652278898,0.11761048038005828,0.04028963255137205
1731409628376919300,10.149919189453126,0.008324760752916336,0.06542495059072971,0.054230187359452245
1731409628386939400,10.159939453125,0.051750645503401756,0.03300678206682205,0.056362815473973746
1731409628396960300,10.169960205078125,0.04722293894588947,0.00492693500816822,0.046879824596643443
1731409628406981400,10.1799814453125,0.03480769400894642,0.011453706428408622,-0.0313511238142848
1731409628417002500,10.19000244140625,-0.008449263915419577,0.05083528422415256,-0.07746259438693523
1731409628427022300,10.200022216796874,-0.023365678018331525,0.08130173415839671,-0.11646014130115509
1731409628437043500,10.21004345703125,-0.07357260121107101,0.07303074941933155,-0.13947802879512308
1731409628447064300,10.220064208984375,-0.23773206679821013,0.06351064140200614,-0.1256131695717573
1731409628457085400,10.23008544921875,-0.1878448770791292,-0.001938274586200714,-0.027870880483090877
1731409628467105300,10.240105224609374,0.02817921577990055,-0.03177870157659054,0.03955488853603601
1731409628477126400,10.25012646484375,0.225598561412096,-0.06522562862634658,0.08101444164961576
1731409628487147300,10.260147216796875,0.19548720852583645,-0.07548924848735332,0.1004950949281454
1731409628497168400,10.27016845703125,-0.10978753166943787,-0.04775719195306301,0.11661124020963906
1731409628507188200,10.280188232421875,-0.34366029269099235,-0.09143734372556209,0.11662673003971576
1731409628517209300,10.290209228515625,-0.16364041014909744,-0.11854396183788776,0.11999211481958627
1731409628527230200,10.300230224609376,0.10919044255912304,-0.10384323631227016,0.08179068671911954
1731409628537250300,10.310250244140626,0.3166366766870022,-0.12549918780326844,-0.019245383217930793
1731409628547271400,10.320271484375,0.27338088780641556,-0.1836275516450405,-0.10719897648096084
1731409628557292500,10.33029248046875,0.16817630001306533,-0.27508009293973446,-0.07998363729715346
1731409628567313400,10.3403134765625,0.051264323291182516,-0.34968145267665385,-0.01654810695797205
1731409628577333500,10.35033349609375,-0.05050912100970745,-0.38438510178923607,-0.007348609197139739
1731409628587354400,10.360354248046875,0.0011918401330709458,-0.3488479244619608,-0.03523614855408668
1731409628597375500,10.37037548828125,0.057737903219461435,-0.29393735362291334,-0.01982055275738239
1731409628607393300,10.380393310546875,0.11503799954354763,-0.23158231199681759,0.03007803513854742
1731409628617413400,10.390413330078125,0.16114537846297025,-0.2155944692701101,0.07203267829269171
1731409628627434200,10.400434326171874,0.11570260093212127,-0.16490356195271014,0.09478285476118326
1731409628637455000,10.410455078125,0.04242927492856979,-0.08401391572654247,0.08449000880569218
1731409628647476200,10.420476318359375,-0.01669745230078697,-0.027100188371539113,0.06228372995555401
1731409628657496300,10.430496337890625,-0.05972995381951332,-0.015926467928290368,0.0957809258878231
1731409628667517200,10.44051708984375,-0.02767857278138399,-0.041136897030472755,0.1823489100113511
1731409628677538000,10.4505380859375,-0.015088263538479803,-0.04890460842251777,0.2828852137327194
1731409628687558100,10.46055810546875,-0.04620382503122091,-0.014480945295095443,0.299947115431726
1731409628697579300,10.470579345703126,-0.016648352462053297,0.05444821402430534,0.2489464115127921
1731409628707600400,10.480600341796874,0.1132353340357542,0.1524801337093115,0.18917583342194555
1731409628717621200,10.490621337890625,0.17235943091660738,0.2342389639854431,0.07347381701171397
1731409628727641300,10.500641357421875,0.19843056850135324,0.24523382073044775,0.020407704995572564
1731409628737662200,10.510662109375,0.10128595304489135,0.15833645852208136,0.010845511402189732
1731409628747683300,10.520683349609374,-0.056773442101478576,0.09828735575079918,0.022420798383653164
1731409628757704200,10.5307041015625,-0.06912205154299736,0.06833528507947921,0.06130933196544647
1731409628767724300,10.540724365234375,-0.049018590191006656,0.07239595864713191,0.14333119709193706
1731409628777745200,10.5507451171875,-0.04408990161716938,0.06617664574086665,0.2672550984025001
1731409628787766300,10.560766357421874,-0.04666033662706613,0.06358838281333447,0.36090953365564343
1731409628797787100,10.570787109375,-0.06881605433374643,0.07590133641958237,0.3748956811711192
1731409628807807200,10.58080712890625,-0.15122224260270595,0.051235097196698186,0.36942251045703883
1731409628817828000,10.590828125,-0.09500614212304354,0.015098200410604477,0.30910540439933537
1731409628827849200,10.60084912109375,-0.015586276188492775,0.00587502951323986,0.21187603326886892
1731409628837869000,10.610869140625,0.023756138640642164,0.009892448461055754,0.10585574517846107
1731409628847890200,10.62089013671875,0.050016953578591344,0.015980243942141533,0.06362053151726722
1731409628857911300,10.630911376953126,0.07823679362982511,0.018947861576080322,0.07108984448462724
1731409628867932400,10.640932373046875,0.09353460826575756,0.011133388432860374,0.16667320197373628
1731409628877952300,10.6509521484375,0.10884674368798732,-0.058414779567718504,0.27593992463946343
1731409628887973400,10.660973388671875,0.10753741465508937,-0.09964695366621017,0.32522125741988417
1731409628897994200,10.670994140625,0.12334288655221462,-0.1193833352714777,0.32889263940900565
1731409628908015400,10.681015380859375,0.12706979812085628,-0.11620412071347236,0.3163596133112907
1731409628918035200,10.69103515625,0.15629939973652363,-0.08771744641959667,0.3070163231655955
1731409628928056300,10.701056396484375,0.10529577320814132,-0.038566169759631154,0.2761903922691941
1731409628938077200,10.7110771484375,0.06090747316628694,0.02043839239478111,0.20476532448083162
1731409628948098300,10.721098388671875,0.04449614433050155,0.052182022657990455,0.18931553415358066
1731409628958118100,10.7311181640625,0.06639408788383007,0.07589666024446487,0.21686638890206814
1731409628968139300,10.74113916015625,0.07702595653533935,0.049020343756675716,0.23042641995996235
1731409628978160000,10.75116015625,0.10454173997044562,-0.022200725892186163,0.2764201093718409
1731409628988180200,10.76118017578125,0.1132177983790636,-0.10210019203722476,0.33886516736894845
1731409628998201000,10.771201171875,0.11851648930907249,-0.14151041140556334,0.3131836136236787
1731409629008222500,10.781222412109376,0.18096856156885624,-0.15038754534423351,0.21744243522435425
1731409629018243300,10.791243408203124,0.2255032843440771,-0.08540273973643779,0.07831599634587764
1731409629028263400,10.801263427734375,0.1483434722959995,0.0272445652782917,-0.07128332123011351
1731409629038284300,10.8112841796875,-0.14138473919928074,0.12873627002835272,-0.14972586656510828
1731409629048305200,10.82130517578125,-0.16469313407242298,0.12265198167860507,-0.06090104342550039
1731409629058326300,10.831326171875,-0.042596448189020156,0.07744564325213432,0.12129267602413892
1731409629068346400,10.841346435546875,0.28789427406638857,0.08379004384279251,0.2487798227742314
1731409629078367200,10.8513671875,0.1887123075634241,-0.017698153775930404,0.26233225504755975
1731409629088388000,10.86138818359375,0.06736673230826855,-0.043970659151673315,0.14522329444885254
1731409629098408200,10.871408203125,-0.16602146006673574,-0.10431319191157817,0.08775017964541912
1731409629108429300,10.88142919921875,-0.11946458381414413,-0.15997136624753475,0.061039867374300956
1731409629118450200,10.8914501953125,0.11014262871742247,-0.14896131193339823,0.05673603270053863
1731409629128471000,10.901470947265626,0.25751433337181806,-0.1261146893531084,0.05612783767431974
1731409629138491100,10.9114912109375,0.22676614388674496,-0.15870704540014266,0.104684655572474
1731409629148512300,10.92151220703125,0.07168050385415553,-0.209281632861495,0.12880319778472185
1731409629158533400,10.931533447265625,-0.09007073154747486,-0.23883272151648996,0.12064619481414555
1731409629168554200,10.94155419921875,-0.16240034696012734,-0.25801439184844494,0.14474135615080594
1731409629178574300,10.95157421875,-0.12262626271545886,-0.19981120920479298,0.1951329882606864
1731409629188595200,10.96159521484375,-0.09366992508322,-0.1023299091398716,0.2150312824293971
1731409629198616300,10.9716162109375,-0.10972644913196564,-0.019354104289412498,0.2370864623710513
1731409629208636200,10.98163623046875,-0.1879927611172199,0.04914543144106864,0.3241457371428609
1731409629218657300,10.9916572265625,-0.1748062395468354,0.10814999359548091,0.36348435257971284
1731409629228678100,11.00167822265625,-0.13668021477013825,0.17022738732397555,0.3096519323661923
1731409629238699300,11.01169921875,-0.11481938835680484,0.18715455672740935,0.20701485697329042
1731409629248719000,11.021718994140626,-0.057068041133880615,0.16030688181221484,0.12204787830561399
1731409629258740200,11.031740234375,0.027895722663402556,0.12898469183146952,0.09507219309657812
1731409629268761000,11.041760986328125,0.1003863738566637,0.07126432426869869,0.072716568903625
1731409629278782500,11.051782470703126,0.16115677663981914,-0.02600070269703865,0.06988514486998319
1731409629288802000,11.061802001953126,0.189066820089519,-0.10099719923138618,0.06627952159345149
1731409629298823400,11.071823486328125,0.18091186294555664,-0.13472118965685367,0.032493571847677226
1731409629308844300,11.08184423828125,0.2155038683772087,-0.14847323615550995,0.009641396309435366
1731409629318865400,11.091865478515626,0.14251052835881708,-0.09579203180372714,-0.0032701077118515967
1731409629328885200,11.10188525390625,0.040139994947612286,-0.033473230534791946,0.02852379143387079
1731409629338906400,11.11190625,-0.04522095147371292,-0.03122340578138828,0.06755728644430636
1731409629348927200,11.12192724609375,-0.09842559517771005,-0.026083120283484456,0.039841012001037596
1731409629358947300,11.131947265625,-0.01930091279745102,-0.027748423147201537,-0.00457096117734909
1731409629368968200,11.14196826171875,0.08093465441167354,-0.10639701244831085,-0.0064794251471757885
1731409629378989300,11.1519892578125,0.14534721308946608,-0.1950157916218042,-0.02845511011183262
1731409629389010200,11.16201025390625,0.13630349041223525,-0.24192776492238044,-0.06342004050910473
1731409629399030300,11.1720302734375,0.11411679304540157,-0.2412017887353897,-0.1169280510738492
1731409629409051100,11.182051025390624,0.09651859251260757,-0.24390929412841794,-0.13066051608920096
1731409629419072300,11.192072265625,0.09740063604414463,-0.2264052016198635,-0.09178338068425655
1731409629429093400,11.20209326171875,0.09061082977354526,-0.19430092135071753,-0.0319391528353095
1731409629439113200,11.21211328125,0.04612228422760963,-0.14910861144959925,0.00035918870121240615
1731409629449134300,11.22213427734375,0.04929711487144232,-0.14912263997495173,0.026182196743786332
1731409629459155200,11.2321552734375,0.026355507484078406,-0.11266776328086853,0.10797960546463728
1731409629469175300,11.24217529296875,-0.062108957910537714,-0.0508989971101284,0.17671382673382757
1731409629479196400,11.252196533203126,-0.1322486620634794,-0.007055763730406761,0.21474077505022285
1731409629489217300,11.26221728515625,-0.112422556348145,0.03366086206138134,0.21426497423201799
1731409629499238100,11.272238037109375,-0.10377075559794902,0.09299743264913558,0.21280162368118763
1731409629509258200,11.28225830078125,-0.019181670331954954,0.12320260129868983,0.1880608579173684
1731409629519279400,11.292279296875,0.08767945249676704,0.14387947862446307,0.11817717435210942
1731409629529300200,11.30230029296875,0.137948919531703,0.17197043159902095,0.04742869065105915
1731409629539321000,11.312321044921875,0.12499357636868953,0.1541261473506689,0.03202332398742437
1731409629549341200,11.322341064453125,0.045330841588974,0.1320662912338972,0.07561287486702203
1731409629559362000,11.332362060546876,-0.004966682496666908,0.13463409589529038,0.12516805615276097
1731409629569383200,11.342383056640625,0.0644034985885024,0.18081950848698614,0.16864508656859398
1731409629579403300,11.3524033203125,0.06363748265206813,0.2913514287829399,0.19069792842268943
1731409629589424000,11.362424072265625,-0.0312748437076807,0.4262608344882726,0.16429302883893251
1731409629599445200,11.3724453125,-0.17814473631978034,0.6080109018236398,0.11551350810080765
1731409629609464800,11.38246484375,-0.35298517039716243,0.7153250291168689,0.10364420660883188
1731409629619485000,11.39248486328125,-0.3996487218946218,0.642127106437087,0.18783786281645296
1731409629629505800,11.402505859375,-0.28725539164096114,0.325896672463417,0.2552408354818821
1731409629639527000,11.41252685546875,-0.08319909221231937,-0.111283030924201,0.1873418959930539
1731409629649547800,11.4225478515625,0.21733108380436897,-0.48174832843244075,0.009207388806343078
1731409629659567900,11.43256787109375,0.6022241351157427,-0.718967185011506,-0.24529344196319577
1731409629669588700,11.442588623046875,0.7490285612761974,-0.77604750110507,-0.40866146491169925
1731409629679610000,11.452610107421876,0.8095458660811186,-0.7336942140221595,-0.40324996125698087
1731409629689631000,11.462630859375,0.4070362017974257,-0.6788093621462583,-0.2599903680965304
1731409629699651000,11.472651123046875,0.05482639968693256,-0.6290700564652681,-0.07399608732014894
1731409629709672000,11.482671875,-0.3237678437411785,-0.5944459023296833,0.172744338580966
1731409629719693000,11.492693115234376,-0.4505719766631722,-0.5878665239393711,0.41523558260500426
1731409629729713000,11.502712890625,-0.31601883704960343,-0.5495318248480558,0.593478518602252
1731409629739734000,11.512734130859375,-0.04943652334213257,-0.38346038815975186,0.49820174284428353
1731409629749755000,11.5227548828125,0.10508826793730258,-0.19537410354018211,0.19044015426933764
1731409629759776000,11.53277587890625,0.10812076750099658,-0.07636953845322132,-0.13526041110008954
1731409629769795800,11.5427958984375,0.07180325345098972,-0.0024029694885015487,-0.36831864086836574
1731409629779817000,11.55281689453125,0.06783668790757656,0.047891631987690926,-0.4992568048551678
1731409629789837800,11.562837890625,0.022426351341605186,0.046648938450217246,-0.45407560086995363
1731409629799858700,11.572858642578124,-0.04469371272921562,0.037488311395049094,-0.23694646937847136
1731409629809878800,11.582878662109374,-0.10279226595461367,0.03929097690284252,0.001005085389316082
1731409629819900000,11.59289990234375,-0.1651288951411843,0.054798927158117294,0.1984673933804035
1731409629829921000,11.602921142578126,-0.15000819063782692,0.0960597428292036,0.31499943087399
1731409629839941000,11.612941162109376,-0.06681231329590082,0.1555517962396145,0.2967649782642722
1731409629849962000,11.6229619140625,-0.008372691547870636,0.22655542374551296,0.14330898526012897
1731409629859982800,11.63298291015625,0.0563759672164917,0.29941841538250447,-0.028031039480865
1731409629870004000,11.64300390625,0.12125088270902633,0.3213292184174061,-0.07018032842427492
1731409629880024000,11.653024169921874,0.12262421688884496,0.29937106910943984,-0.03240647808611393
1731409629890045000,11.663044921875,0.06362637673616409,0.2549029818296432,0.05335282000303268
1731409629900065800,11.673065673828125,-0.03521569028794765,0.15035364307463167,0.10972849495857953
1731409629910087000,11.6830869140625,0.05279284803271293,0.016229250267148016,0.14259586855471135
1731409629920107000,11.69310693359375,0.12854893076270818,-0.07666413748562335,0.11105097573399543
1731409629930128000,11.7031279296875,0.12865326792001724,-0.06584522182941437,-0.014559271228313445
1731409629940148700,11.713148681640625,0.08892565316557884,-0.0956195978462696,-0.08451689681261777
1731409629950168800,11.7231689453125,0.025531623880565166,-0.0815904879719019,-0.1089700778067112
1731409629960189700,11.733189697265624,0.06052198098003864,-0.07221651042699813,-0.07236322542130946
1731409629970211000,11.743211181640625,0.1694891361773014,-0.15662497842907905,0.028790333415567873
1731409629980232000,11.75323193359375,0.17847060727328062,-0.24982816278338432,0.177973763667047
1731409629990252000,11.763251953125,0.1457563784122467,-0.29509061531126496,0.23288374998420475
1731409630000273000,11.77327294921875,0.06438040997385978,-0.3024836481720209,0.18329875808209178
1731409630010294000,11.7832939453125,0.10124737460017204,-0.276876913228631,0.08179127124100923
1731409630020315000,11.79331494140625,0.16496376770734786,-0.22120061871409416,-0.03734773388057947
1731409630030335000,11.8033349609375,0.19231354692578315,-0.16677695460915565,-0.12327508201301098
1731409630040355800,11.81335595703125,0.14335282440185546,-0.15595277825593948,-0.11939970188438892
1731409630050377000,11.823376953125,0.09693009592294692,-0.16806173372268676,-0.01464315011948347
1731409630060396800,11.833396728515625,0.01866729106903076,-0.16676234156191347,0.13757541004419327
1731409630070418000,11.84341796875,-0.05447890142351389,-0.1384586226195097,0.2826888143777847
1731409630080438800,11.853438720703124,-0.0641597529605031,-0.056954643887281414,0.35078678357005116
1731409630090460000,11.8634599609375,-0.060926470127701755,0.11116261941492557,0.3043497343048453
1731409630100479700,11.873479736328125,-0.06684037034660577,0.2588338915377855,0.23373218350708483
1731409630110500900,11.8835009765625,-0.1075862222328782,0.37715222792625425,0.18166677296608685
1731409630120522000,11.89352197265625,-0.15809680454730987,0.4730220011413097,0.17386866643577814
1731409630130543000,11.903543212890625,-0.28676497777551413,0.5115548531532287,0.25618629963845013
1731409630140563000,11.91356298828125,-0.42208734819591043,0.5206657958477735,0.39480858838707206
1731409630150584000,11.923583984375,-0.5372101034134626,0.44815877804160115,0.48514147800207136
1731409630160605000,11.93360498046875,-0.44984044751822944,0.1859288143247366,0.5227826418712734
1731409630170625000,11.943625,-0.057258010748028755,-0.09354746774733066,0.3682373923256993
1731409630180646000,11.95364599609375,0.3973129724234342,-0.24466800354123114,0.08040595436245203
1731409630190667000,11.9636669921875,0.6239239257484674,-0.30248131008446216,-0.17151450452506542
1731409630200687900,11.97368798828125,0.64318450653553,-0.37407530469894407,-0.23500410313904285
1731409630210708000,11.9837080078125,0.490237339836359,-0.4557423650383949,-0.15890607510358093
1731409630220728800,11.993728759765625,0.280614346191287,-0.48105917712450025,0.011750351287424564
1731409630230750000,12.00375,0.11982231121063232,-0.45025604258179663,0.24526684621721503
1731409630240770800,12.013770751953125,-0.0771174342110753,-0.3959931219965219,0.4042626454308629
1731409630250791000,12.023791015625,-0.18476736932992935,-0.3154401603788137,0.44757571745663877
1731409630260811800,12.033811767578126,-0.19447744696140287,-0.1851350335985422,0.3574345510214567
1731409630270833000,12.0438330078125,-0.16815175009369848,-0.05604629687070846,0.1303361064404249
1731409630280854000,12.05385400390625,-0.05267477461099624,-0.0042979894548654555,-0.1121262037500739
1731409630290874000,12.0638740234375,-0.03217588420063257,0.019193360769748688,-0.2344333175137639
1731409630300895000,12.07389501953125,0.16791268064081669,-0.02607026080191135,-0.1815571751117706
1731409630310915800,12.083915771484374,0.25477204892635347,-0.0350742359906435,-0.07726940990239381
1731409630320936000,12.09393603515625,0.2743231370925903,0.0704793113708496,0.013731880493462086
1731409630330957000,12.10395703125,0.20382921267449855,0.012529226705431938,0.09790040225982666
1731409630340978000,12.11397802734375,0.07817454204857349,0.023499533531069754,0.14147680139690635
1731409630350998800,12.123998779296874,-0.1418301448792219,0.0728501321554184,0.1554816536128521
1731409630361019000,12.134018798828125,-0.11829027933776377,0.11133797598183154,0.1343649235650897
1731409630371039700,12.144039794921875,0.056770811752974985,0.1608177539438009,0.13351210612803696
1731409630381060900,12.154060791015626,0.2507522918909788,0.18299276087284086,0.12266717924773693
1731409630391081000,12.1640810546875,0.20068740751743316,0.15871581322848796,0.13505407487303017
1731409630401101800,12.174101806640625,0.04068126221746206,0.12723755590319633,0.10690525423139333
1731409630411122700,12.184122802734375,-0.05509527975618839,0.1071791027367115,0.09629238254129886
1731409630421144000,12.19414404296875,-0.08076485080271958,0.09462298802435398,0.07141396187245845
1731409630431164000,12.204163818359374,0.022017186018824575,0.0764227299451828,0.019014789332449437
1731409630441185000,12.21418505859375,0.14671674787700176,0.03623860359489917,-0.0014054828837513924
1731409630451206000,12.224205810546875,0.16987550514638422,0.006838906109333038,0.025601181985437867
1731409630461227000,12.23422705078125,0.10954700091183185,-0.030746435919404028,0.06836188082545995
1731409630471246800,12.244246826171874,0.003541618129611015,-0.034384500160813326,0.08364332884848118
1731409630481268000,12.25426806640625,-0.05802841059863567,-0.024468086302280423,0.12978753264695406
1731409630491288800,12.264288818359375,-0.07310206108987331,-0.03501052310466766,0.15112550422996282
1731409630501309000,12.274308837890626,-0.1326291858136654,-0.055143795073032374,0.12125117496997118
1731409630511329800,12.284329833984375,-0.11343056434690951,-0.023822189614176748,0.07110358074903488
1731409630521351000,12.294350830078125,-0.09771920047402381,-0.04167874882221222,0.10694266363233328
1731409630531371800,12.304371826171876,-0.1322574298918247,-0.05812836384177208,0.09136837014257908
1731409630541392000,12.314391845703126,-0.11429273413419723,-0.026271920853853225,0.14069208076000214
1731409630551412700,12.324412841796875,-0.10903262164890766,0.021904957816004753,0.11968699439316988
1731409630561434000,12.33443408203125,-0.10279986473917961,0.031130466800928114,0.03626432255804538
1731409630571455000,12.344455078125,-0.0002484218031167984,-0.051069677501916884,-0.023918343465030193
1731409630581475000,12.35447509765625,0.0658703562706709,-0.1486322261095047,-0.12131605689972638
1731409630591496000,12.364495849609375,0.006125497142970561,-0.1866951225221157,-0.16209844140410423
1731409630601517000,12.37451708984375,0.04386544521152973,-0.24393852022290227,-0.1278638711079955
1731409630611536600,12.38453662109375,0.0795025757819414,-0.2711567820161581,-0.11476005938500165
1731409630621557800,12.394557861328124,0.1592433442339301,-0.2676052270144224,-0.07938070296794175
1731409630631578600,12.40457861328125,0.15012918666899203,-0.22874971891939638,0.002904489269852638
1731409630641599700,12.414599853515625,0.02566343356668949,-0.18840484904944896,0.10117752423435449
1731409630651619600,12.42461962890625,-0.13497370311319828,-0.13412088567614555,0.13727145866155624
1731409630661640700,12.434640625,-0.23872107783555982,-0.06028817222416401,0.12352379607707262
1731409630671661800,12.444661865234375,-0.20736381654143332,0.0062111295998096465,0.07070902847349643
1731409630681683000,12.454682861328125,-0.0623383827522397,0.0336450799703598,0.0026098902374505997
