time,seconds_elapsed,z,y,x
1731409618264749800,0.037749755859375,-1.0482025146484375,-0.1795654296875,-0.02105712890625
1731409618274769700,0.047769775390625,-1.0699920654296875,-0.1774749755859375,-0.0178070068359375
1731409618284791000,0.057791015625,-1.0613861083984375,-0.1826324462890625,-0.0162811279296875
1731409618294812000,0.06781201171875,-1.0289764404296875,-0.1800079345703125,-0.0193328857421875
1731409618304833000,0.0778330078125,-1.006439208984375,-0.1637725830078125,-0.0268096923828125
1731409618314852900,0.087852783203125,-1.0114593505859375,-0.1524200439453125,-0.02874755859375
1731409618324874000,0.0978740234375,-1.022735595703125,-0.1577911376953125,-0.0208282470703125
1731409618334894800,0.107894775390625,-1.00244140625,-0.172210693359375,-0.0152435302734375
1731409618344916000,0.117916015625,-0.9889373779296875,-0.1718292236328125,-0.0071868896484375
1731409618354935800,0.127935791015625,-0.99530029296875,-0.1731414794921875,0.0027008056640625
1731409618364957000,0.13795703125,-1.0008697509765625,-0.1883087158203125,0.009521484375
1731409618374977800,0.147977783203125,-1.0163726806640625,-0.199798583984375,0.0250244140625
1731409618384998000,0.157997802734375,-1.012939453125,-0.1953125,0.0343475341796875
1731409618395018800,0.168018798828125,-0.999298095703125,-0.1895599365234375,0.0333709716796875
1731409618405039900,0.178039794921875,-0.9921112060546875,-0.1988372802734375,0.026092529296875
1731409618415060700,0.188060791015625,-0.974853515625,-0.2118072509765625,0.01043701171875
1731409618425080800,0.198080810546875,-0.970550537109375,-0.2265777587890625,0.0039825439453125
1731409618435102000,0.20810205078125,-0.9754638671875,-0.2214202880859375,0.0063018798828125
1731409618445123000,0.218123046875,-0.9627227783203125,-0.20513916015625,0.013946533203125
1731409618455144000,0.22814404296875,-0.958892822265625,-0.19696044921875,0.027740478515625
1731409618465164000,0.2381640625,-0.96533203125,-0.199859619140625,0.043975830078125
1731409618475185000,0.248184814453125,-0.9922943115234375,-0.19586181640625,0.0510406494140625
1731409618485206000,0.2582060546875,-1.010833740234375,-0.191619873046875,0.0469970703125
1731409618495225900,0.268225830078125,-1.0194091796875,-0.198028564453125,0.037384033203125
1731409618505247000,0.2782470703125,-1.0089874267578125,-0.21026611328125,0.027313232421875
1731409618515267800,0.288267822265625,-0.983978271484375,-0.21270751953125,0.017578125
1731409618525288700,0.298288818359375,-0.977294921875,-0.1959075927734375,0.0061798095703125
1731409618535308800,0.308308837890625,-0.9886627197265625,-0.184906005859375,0.00445556640625
1731409618545330000,0.318329833984375,-0.998382568359375,-0.1882476806640625,0.0092315673828125
1731409618555350800,0.328350830078125,-0.99420166015625,-0.204376220703125,0.0142822265625
1731409618565371000,0.338370849609375,-0.97198486328125,-0.2129974365234375,0.0170440673828125
1731409618575391700,0.348391845703125,-0.9566650390625,-0.208526611328125,0.018218994140625
1731409618585412900,0.358412841796875,-0.958740234375,-0.19287109375,0.021453857421875
1731409618595433500,0.36843359375,-0.980499267578125,-0.1736602783203125,0.036041259765625
1731409618605453600,0.37845361328125,-1.005615234375,-0.1663818359375,0.049530029296875
1731409618615474400,0.388474365234375,-1.02349853515625,-0.1789398193359375,0.0489044189453125
1731409618625495600,0.39849560546875,-1.0210723876953125,-0.2035980224609375,0.034698486328125
1731409618635516400,0.408516357421875,-1.0025787353515625,-0.2183990478515625,0.0127410888671875
1731409618645536500,0.41853662109375,-0.9837188720703125,-0.21673583984375,-0.002227783203125
1731409618655557400,0.428557373046875,-0.968719482421875,-0.2139434814453125,-0.0059356689453125
1731409618665578500,0.43857861328125,-0.947906494140625,-0.2222747802734375,-0.0001068115234375
1731409618675598300,0.448598388671875,-0.9342041015625,-0.2315826416015625,0.011962890625
1731409618685619700,0.45861962890625,-0.93206787109375,-0.2181549072265625,0.035919189453125
1731409618695640600,0.468640625,-0.9538726806640625,-0.1695556640625,0.06719970703125
1731409618705661400,0.478661376953125,-0.998870849609375,-0.165740966796875,0.0760498046875
1731409618715681500,0.488681640625,-1.026031494140625,-0.2142181396484375,0.06829833984375
1731409618725702400,0.498702392578125,-1.01531982421875,-0.230560302734375,0.0512542724609375
1731409618735723500,0.5087236328125,-0.9894561767578125,-0.21136474609375,0.030517578125
1731409618745743600,0.51874365234375,-0.959808349609375,-0.2135009765625,0.0237884521484375
1731409618755764500,0.528764404296875,-0.9343414306640625,-0.2271728515625,0.0251922607421875
1731409618765785300,0.538785400390625,-0.931243896484375,-0.22998046875,0.023895263671875
1731409618775806500,0.548806396484375,-0.94964599609375,-0.2315673828125,0.022918701171875
1731409618785826600,0.55882666015625,-0.9654693603515625,-0.23553466796875,0.0244903564453125
1731409618795847400,0.568847412109375,-0.9618072509765625,-0.240997314453125,0.0212860107421875
1731409618805868300,0.578868408203125,-0.9483795166015625,-0.2425689697265625,0.0220489501953125
1731409618815889700,0.5888896484375,-0.9444580078125,-0.2416839599609375,0.02679443359375
1731409618825909500,0.598909423828125,-0.94683837890625,-0.2429962158203125,0.029693603515625
1731409618835930600,0.6089306640625,-0.9489898681640625,-0.24560546875,0.029266357421875
1731409618845951500,0.618951416015625,-0.94915771484375,-0.2442169189453125,0.0251007080078125
1731409618855971600,0.6289716796875,-0.953887939453125,-0.241607666015625,0.0255584716796875
1731409618865992400,0.638992431640625,-0.9533843994140625,-0.2430267333984375,0.0244140625
1731409618876013600,0.649013671875,-0.951904296875,-0.2432403564453125,0.0179290771484375
1731409618886034400,0.659034423828125,-0.94378662109375,-0.241424560546875,0.02532958984375
1731409618896054500,0.669054443359375,-0.938934326171875,-0.23760986328125,0.0377044677734375
1731409618906075400,0.679075439453125,-0.9496307373046875,-0.2373809814453125,0.0339202880859375
1731409618916096500,0.689096435546875,-0.956268310546875,-0.2475128173828125,0.02703857421875
1731409618926116400,0.699116455078125,-0.950927734375,-0.2516632080078125,0.027740478515625
1731409618936137500,0.709137451171875,-0.9600982666015625,-0.2461700439453125,0.0265960693359375
1731409618946158300,0.719158447265625,-0.9705047607421875,-0.2425689697265625,0.0303955078125
1731409618956179500,0.729179443359375,-0.9670562744140625,-0.2445831298828125,0.0358734130859375
1731409618966199300,0.73919921875,-0.9573822021484375,-0.2493133544921875,0.039703369140625
1731409618976220700,0.749220703125,-0.9435577392578125,-0.252838134765625,0.0407257080078125
1731409618986241500,0.759241455078125,-0.942718505859375,-0.256378173828125,0.0426788330078125
1731409618996262700,0.7692626953125,-0.944580078125,-0.2600860595703125,0.042999267578125
1731409619006282500,0.779282470703125,-0.9464569091796875,-0.26318359375,0.03863525390625
1731409619016303600,0.7893037109375,-0.9487152099609375,-0.2612762451171875,0.0395660400390625
1731409619026324500,0.799324462890625,-0.9567718505859375,-0.255706787109375,0.0418701171875
1731409619036344600,0.809344482421875,-0.957977294921875,-0.2536468505859375,0.0478363037109375
1731409619046365400,0.819365478515625,-0.9614105224609375,-0.2528076171875,0.05853271484375
1731409619056386600,0.829386474609375,-0.96771240234375,-0.24774169921875,0.0634307861328125
1731409619066407400,0.839407470703125,-0.9809417724609375,-0.24322509765625,0.0518798828125
1731409619076427500,0.849427490234375,-0.98760986328125,-0.25189208984375,0.0321807861328125
1731409619086448400,0.859448486328125,-0.971282958984375,-0.264190673828125,0.05517578125
1731409619096469500,0.869469482421875,-0.9983367919921875,-0.2251739501953125,0.0696258544921875
1731409619106489300,0.8794892578125,-1.009063720703125,-0.1962738037109375,0.0694427490234375
1731409619116510500,0.889510498046875,-0.987457275390625,-0.21478271484375,0.064056396484375
1731409619126531600,0.899531494140625,-0.990631103515625,-0.2450103759765625,0.0660247802734375
1731409619136552400,0.909552490234375,-0.971343994140625,-0.255950927734375,0.057403564453125
1731409619146572500,0.919572509765625,-0.9408111572265625,-0.26220703125,0.051788330078125
1731409619156593700,0.92959375,-0.9402923583984375,-0.2732696533203125,0.0477752685546875
1731409619166614500,0.939614501953125,-0.945953369140625,-0.279052734375,0.0374755859375
1731409619176635400,0.949635498046875,-0.9473114013671875,-0.2730712890625,0.029296875
1731409619186655500,0.959655517578125,-0.9645538330078125,-0.2659149169921875,0.027984619140625
1731409619196676600,0.969676513671875,-0.972076416015625,-0.2666778564453125,0.029754638671875
1731409619206697500,0.979697509765625,-0.9747161865234375,-0.2686920166015625,0.0299224853515625
1731409619216717600,0.989717529296875,-0.97467041015625,-0.2662353515625,0.0336151123046875
1731409619226738400,0.999738525390625,-0.9775238037109375,-0.2627410888671875,0.03118896484375
1731409619236759600,1.009759521484375,-0.9895172119140625,-0.264923095703125,0.0139312744140625
1731409619246780400,1.019780517578125,-0.9957122802734375,-0.2767791748046875,-0.0071258544921875
1731409619256800500,1.029800537109375,-0.9938201904296875,-0.2828521728515625,-0.015045166015625
1731409619266821400,1.0398212890625,-1.0082855224609375,-0.281036376953125,-0.0095367431640625
1731409619276842500,1.049842529296875,-0.9983673095703125,-0.2822723388671875,-0.008758544921875
1731409619286862600,1.059862548828125,-0.96954345703125,-0.2839202880859375,-0.014739990234375
1731409619296883500,1.069883544921875,-0.959259033203125,-0.286895751953125,-0.024383544921875
1731409619306904600,1.079904541015625,-0.9525604248046875,-0.2940521240234375,-0.0367584228515625
1731409619316925400,1.089925537109375,-0.9463958740234375,-0.310455322265625,-0.0451202392578125
1731409619326945500,1.099945556640625,-0.9429168701171875,-0.3278350830078125,-0.0515899658203125
1731409619336966400,1.10996630859375,-0.9086761474609375,-0.3318939208984375,-0.052001953125
1731409619346987500,1.119987548828125,-0.9625244140625,-0.3461151123046875,-0.05938720703125
1731409619357008400,1.13000830078125,-0.9457550048828125,-0.3646087646484375,-0.0621795654296875
1731409619367028500,1.140028564453125,-0.898773193359375,-0.361785888671875,-0.0617218017578125
1731409619377049300,1.15004931640625,-0.9398345947265625,-0.351043701171875,-0.0774383544921875
1731409619387070500,1.160070556640625,-0.98358154296875,-0.3519287109375,-0.0888671875
1731409619397090600,1.170090576171875,-1.000244140625,-0.3540802001953125,-0.0784149169921875
1731409619407111400,1.180111328125,-1.02264404296875,-0.34228515625,-0.06072998046875
1731409619417132500,1.190132568359375,-1.052520751953125,-0.326141357421875,-0.0523223876953125
1731409619427153700,1.200153564453125,-1.0733795166015625,-0.3323974609375,-0.070892333984375
1731409619437173500,1.210173583984375,-1.087005615234375,-0.356689453125,-0.0956878662109375
1731409619447194600,1.220194580078125,-1.090057373046875,-0.4119720458984375,-0.1341552734375
1731409619457215500,1.230215576171875,-1.090576171875,-0.4383392333984375,-0.1656951904296875
1731409619467235600,1.240235595703125,-1.057373046875,-0.4042205810546875,-0.1671600341796875
1731409619477256400,1.25025634765625,-0.996795654296875,-0.383331298828125,-0.1695098876953125
1731409619487277600,1.260277587890625,-0.93621826171875,-0.3646087646484375,-0.1739654541015625
1731409619497298400,1.27029833984375,-0.8894805908203125,-0.3353729248046875,-0.1899566650390625
1731409619507318500,1.280318603515625,-0.90057373046875,-0.3116607666015625,-0.1971893310546875
1731409619517339400,1.29033935546875,-0.9282073974609375,-0.3066253662109375,-0.200653076171875
1731409619527360500,1.300360595703125,-0.9474945068359375,-0.3067474365234375,-0.2241058349609375
1731409619537381400,1.31038134765625,-0.9448089599609375,-0.30035400390625,-0.223968505859375
1731409619547401500,1.3204013671875,-0.9376678466796875,-0.30499267578125,-0.217010498046875
1731409619557422300,1.33042236328125,-0.9600372314453125,-0.337249755859375,-0.2037506103515625
1731409619567443700,1.340443603515625,-0.975128173828125,-0.3773956298828125,-0.1952972412109375
1731409619577463300,1.35046337890625,-0.95806884765625,-0.4020233154296875,-0.197113037109375
1731409619587484700,1.360484619140625,-0.92974853515625,-0.4041900634765625,-0.203857421875
1731409619597505300,1.37050537109375,-0.9246063232421875,-0.3827972412109375,-0.1928253173828125
1731409619607526400,1.3805263671875,-0.948577880859375,-0.3853912353515625,-0.20196533203125
1731409619617546200,1.390546142578125,-0.99664306640625,-0.3961181640625,-0.2190093994140625
1731409619627567400,1.4005673828125,-1.068939208984375,-0.409820556640625,-0.2516937255859375
1731409619637588200,1.410588134765625,-1.1159820556640625,-0.4583587646484375,-0.28594970703125
1731409619647608300,1.4206083984375,-1.1011810302734375,-0.4935302734375,-0.3504180908203125
1731409619657629200,1.430629150390625,-1.0512237548828125,-0.53985595703125,-0.4338531494140625
1731409619667650300,1.440650390625,-1.0137939453125,-0.6224212646484375,-0.4835052490234375
1731409619677671200,1.450671142578125,-0.9687652587890625,-0.6878204345703125,-0.49554443359375
1731409619687691300,1.460691162109375,-0.9255828857421875,-0.723724365234375,-0.5089111328125
1731409619697712000,1.470712158203125,-0.8797760009765625,-0.7499237060546875,-0.5181732177734375
1731409619707733200,1.480733154296875,-0.8244171142578125,-0.7740631103515625,-0.544036865234375
1731409619717754400,1.49075439453125,-0.7315673828125,-0.806610107421875,-0.5979156494140625
1731409619727774200,1.500774169921875,-0.651885986328125,-0.837677001953125,-0.6211395263671875
1731409619737795300,1.51079541015625,-0.6050262451171875,-0.855133056640625,-0.5888824462890625
1731409619747816400,1.52081640625,-0.5471954345703125,-0.8381805419921875,-0.5494537353515625
1731409619757836300,1.530836181640625,-0.4484710693359375,-0.854400634765625,-0.5303802490234375
1731409619767857400,1.540857421875,-0.3627471923828125,-0.8746490478515625,-0.5261077880859375
1731409619777878300,1.550878173828125,-0.2873077392578125,-0.808258056640625,-0.5441436767578125
1731409619787899100,1.560899169921875,-0.17645263671875,-0.7863006591796875,-0.545623779296875
1731409619797919200,1.570919189453125,-0.1669464111328125,-0.775360107421875,-0.5316619873046875
1731409619807940400,1.5809404296875,-0.209259033203125,-0.7706298828125,-0.5413970947265625
1731409619817961200,1.590961181640625,-0.2038116455078125,-0.7616729736328125,-0.4965667724609375
1731409619827982000,1.600982177734375,-0.2291717529296875,-0.7393646240234375,-0.4440460205078125
1731409619838002200,1.611002197265625,-0.268096923828125,-0.7151947021484375,-0.418304443359375
1731409619848023300,1.621023193359375,-0.2325592041015625,-0.7074432373046875,-0.4253082275390625
1731409619858044200,1.631044189453125,-0.1255035400390625,-0.7144927978515625,-0.422454833984375
1731409619868064300,1.641064208984375,-0.0470733642578125,-0.7075042724609375,-0.427734375
1731409619878085000,1.651085205078125,-0.0170440673828125,-0.6817169189453125,-0.4663543701171875
1731409619888106200,1.661106201171875,0.009490966796875,-0.6722564697265625,-0.480743408203125
1731409619898127400,1.67112744140625,0.047454833984375,-0.6747589111328125,-0.4542694091796875
1731409619908147500,1.6811474609375,0.0625762939453125,-0.6879730224609375,-0.404998779296875
1731409619918168300,1.691168212890625,0.01123046875,-0.695068359375,-0.3504638671875
1731409619928189200,1.701189208984375,-0.0428924560546875,-0.708740234375,-0.3228607177734375
1731409619938209300,1.711209228515625,-0.0729827880859375,-0.7231903076171875,-0.315826416015625
1731409619948230100,1.721230224609375,-0.1896820068359375,-0.703155517578125,-0.3061676025390625
1731409619958251300,1.731251220703125,-0.3579864501953125,-0.6676788330078125,-0.3398590087890625
1731409619968272100,1.741272216796875,-0.447113037109375,-0.6269073486328125,-0.422027587890625
1731409619978292200,1.751292236328125,-0.47564697265625,-0.5855712890625,-0.490966796875
1731409619988313000,1.76131298828125,-0.5419464111328125,-0.5441741943359375,-0.5322723388671875
1731409619998334200,1.771334228515625,-0.5771942138671875,-0.5214080810546875,-0.549591064453125
1731409620008355000,1.78135498046875,-0.6376190185546875,-0.5255126953125,-0.564727783203125
1731409620018375200,1.791375244140625,-0.7120361328125,-0.471771240234375,-0.5700531005859375
1731409620028396300,1.801396240234375,-0.7641448974609375,-0.40863037109375,-0.5792236328125
1731409620038417400,1.81141748046875,-0.7705535888671875,-0.3395843505859375,-0.5911712646484375
1731409620048437200,1.821437255859375,-0.73150634765625,-0.2602081298828125,-0.594696044921875
1731409620058458400,1.831458251953125,-0.6558380126953125,-0.2042083740234375,-0.627349853515625
1731409620068479200,1.841479248046875,-0.5594024658203125,-0.2039642333984375,-0.6207733154296875
1731409620078500400,1.851500244140625,-0.361175537109375,-0.2511444091796875,-0.61578369140625
1731409620088520200,1.861520263671875,0.0183258056640625,-0.263916015625,-0.64215087890625
1731409620098541300,1.871541259765625,3.664886474609375,-0.4456939697265625,-0.9345245361328125
1731409620108562200,1.881562255859375,5.248077392578125,-0.5064697265625,-1.32843017578125
1731409620118583300,1.891583251953125,1.62518310546875,0.1305694580078125,-1.12896728515625
1731409620128603100,1.90160302734375,0.6809234619140625,-0.06195068359375,-0.9709625244140625
1731409620138624300,1.911624267578125,0.633026123046875,-0.2274322509765625,-0.861846923828125
1731409620148645000,1.92164501953125,0.4437255859375,-0.5474090576171875,-0.6333465576171875
1731409620158665200,1.931665283203125,0.2915191650390625,-0.825439453125,-0.4733734130859375
1731409620168686000,1.94168603515625,0.3349456787109375,-0.8851165771484375,-0.3578033447265625
1731409620178707500,1.95170751953125,0.3707275390625,-0.9407196044921875,-0.4271087646484375
1731409620188728300,1.961728271484375,0.492401123046875,-0.9271697998046875,-0.5592193603515625
1731409620198748400,1.97174853515625,0.572784423828125,-0.841766357421875,-0.70697021484375
1731409620208769300,1.981769287109375,0.6048736572265625,-0.7269134521484375,-0.82269287109375
1731409620218790400,1.991790283203125,0.59759521484375,-0.664154052734375,-0.887176513671875
1731409620228810200,2.001810302734375,0.529754638671875,-0.6519775390625,-0.8621368408203125
1731409620238831400,2.011831298828125,0.4458770751953125,-0.6586761474609375,-0.7744903564453125
1731409620248852200,2.021852294921875,0.31927490234375,-0.7017974853515625,-0.67852783203125
1731409620258873300,2.031873291015625,0.2086639404296875,-0.7685699462890625,-0.593475341796875
1731409620268893200,2.04189306640625,0.139007568359375,-0.8265380859375,-0.526123046875
1731409620278914300,2.051914306640625,0.0932464599609375,-0.868560791015625,-0.486358642578125
1731409620288935200,2.06193505859375,0.075103759765625,-0.8828887939453125,-0.4878692626953125
1731409620298956000,2.0719560546875,0.0921173095703125,-0.86810302734375,-0.5053253173828125
1731409620308976000,2.08197607421875,0.11590576171875,-0.8388824462890625,-0.5277557373046875
1731409620318997200,2.091997314453125,0.0817108154296875,-0.7982635498046875,-0.5360107421875
1731409620329018400,2.102018310546875,-0.0195770263671875,-0.760772705078125,-0.52349853515625
1731409620339038200,2.1120380859375,-0.0843658447265625,-0.776214599609375,-0.4915008544921875
1731409620349059300,2.122059326171875,-0.162353515625,-0.813690185546875,-0.456512451171875
1731409620359080200,2.132080078125,-0.2562713623046875,-0.8137969970703125,-0.440887451171875
1731409620369101300,2.142101318359375,-0.2613525390625,-0.834014892578125,-0.4116668701171875
1731409620379121400,2.152121337890625,-0.2350616455078125,-0.8502960205078125,-0.39642333984375
1731409620389142300,2.162142333984375,-0.226776123046875,-0.820892333984375,-0.4215850830078125
1731409620399163100,2.1721630859375,-0.209075927734375,-0.7938079833984375,-0.45318603515625
1731409620409183200,2.182183349609375,-0.3159637451171875,-0.7427215576171875,-0.5223388671875
1731409620419204400,2.192204345703125,-0.418548583984375,-0.696533203125,-0.6165008544921875
1731409620429225200,2.20222509765625,-0.407684326171875,-0.6972503662109375,-0.64959716796875
1731409620439246000,2.21224609375,-0.43060302734375,-0.727081298828125,-0.6336517333984375
1731409620449266200,2.22226611328125,-0.449371337890625,-0.7778778076171875,-0.5854644775390625
1731409620459287000,2.232287109375,-0.426239013671875,-0.837799072265625,-0.528900146484375
1731409620469308200,2.24230810546875,-0.4517669677734375,-0.87384033203125,-0.487701416015625
1731409620479329300,2.252329345703125,-0.5058441162109375,-0.86932373046875,-0.489532470703125
1731409620489349400,2.262349365234375,-0.497772216796875,-0.8328094482421875,-0.50921630859375
1731409620499370200,2.272370361328125,-0.5118560791015625,-0.7977752685546875,-0.5393218994140625
1731409620509391400,2.282391357421875,-0.5379486083984375,-0.7735748291015625,-0.5848846435546875
1731409620519411200,2.2924111328125,-0.53387451171875,-0.7534942626953125,-0.61505126953125
1731409620529432300,2.302432373046875,-0.53424072265625,-0.7540130615234375,-0.615386962890625
1731409620539453200,2.312453125,-0.5423583984375,-0.7698516845703125,-0.6058502197265625
1731409620549474300,2.322474365234375,-0.54058837890625,-0.772216796875,-0.59027099609375
1731409620559494100,2.332494140625,-0.566070556640625,-0.7665557861328125,-0.568389892578125
1731409620569515300,2.342515380859375,-0.638763427734375,-0.7392425537109375,-0.5719757080078125
1731409620579536100,2.3525361328125,-0.656463623046875,-0.6904754638671875,-0.5850067138671875
1731409620589557200,2.36255712890625,-0.6621856689453125,-0.6499481201171875,-0.6160888671875
1731409620599576800,2.372576904296875,-0.709564208984375,-0.5803375244140625,-0.6693115234375
1731409620609598000,2.382597900390625,-0.74078369140625,-0.487457275390625,-0.72528076171875
1731409620619618800,2.392618896484375,-0.7469024658203125,-0.385406494140625,-0.7798309326171875
1731409620629639000,2.402638916015625,-0.7480010986328125,-0.294952392578125,-0.82281494140625
1731409620639659800,2.41265966796875,-0.66357421875,-0.1906585693359375,-0.8194427490234375
1731409620649681200,2.42268115234375,-0.433441162109375,-0.153594970703125,-0.8031158447265625
1731409620659702000,2.432701904296875,-0.1009979248046875,-0.31573486328125,-0.746337890625
1731409620669722000,2.44272216796875,0.156982421875,-0.537872314453125,-0.629913330078125
1731409620679743000,2.452742919921875,2.889190673828125,-0.5595245361328125,-0.4950408935546875
1731409620689764000,2.46276416015625,5.5982208251953125,-0.9908447265625,-0.3792877197265625
1731409620699785000,2.472784912109375,1.5676422119140625,-0.585693359375,-0.6481170654296875
1731409620709805000,2.48280517578125,0.6340179443359375,-0.004547119140625,-0.6829681396484375
1731409620719826000,2.492825927734375,0.50067138671875,-0.1760101318359375,-0.7949981689453125
1731409620729847000,2.502846923828125,0.331451416015625,-0.4093170166015625,-0.745452880859375
1731409620739867000,2.512866943359375,0.1419830322265625,-0.5088653564453125,-0.640106201171875
1731409620749888000,2.522887939453125,0.08660888671875,-0.684112548828125,-0.550750732421875
1731409620759908900,2.532908935546875,0.2445526123046875,-0.8260955810546875,-0.4803009033203125
1731409620769930000,2.542929931640625,0.3989715576171875,-0.88525390625,-0.4989776611328125
1731409620779949800,2.55294970703125,0.5013275146484375,-0.86968994140625,-0.5649871826171875
1731409620789971200,2.56297119140625,0.5587158203125,-0.7344970703125,-0.6890411376953125
1731409620799992000,2.572991943359375,0.5743865966796875,-0.594451904296875,-0.8099822998046875
1731409620810012200,2.58301220703125,0.583892822265625,-0.5624542236328125,-0.855316162109375
1731409620820033000,2.593032958984375,0.6091461181640625,-0.5773773193359375,-0.8277130126953125
1731409620830054100,2.60305419921875,0.594818115234375,-0.5855255126953125,-0.7595977783203125
1731409620840075000,2.613074951171875,0.499298095703125,-0.628021240234375,-0.6812286376953125
1731409620850095000,2.62309521484375,0.4215240478515625,-0.692840576171875,-0.613922119140625
1731409620860116000,2.633115966796875,0.3639068603515625,-0.7477264404296875,-0.565399169921875
1731409620870137000,2.64313720703125,0.3130950927734375,-0.782562255859375,-0.5399932861328125
1731409620880158000,2.653157958984375,0.2769012451171875,-0.7906341552734375,-0.5428314208984375
1731409620890178000,2.663177978515625,0.26214599609375,-0.7684783935546875,-0.5852203369140625
1731409620900199000,2.673198974609375,0.2553863525390625,-0.73065185546875,-0.652862548828125
1731409620910220000,2.683219970703125,0.2435760498046875,-0.68792724609375,-0.683807373046875
1731409620920239900,2.693239990234375,0.217926025390625,-0.6553802490234375,-0.683868408203125
1731409620930261000,2.703260986328125,0.1744384765625,-0.6641693115234375,-0.6804656982421875
1731409620940282000,2.7132822265625,0.114349365234375,-0.69464111328125,-0.663330078125
1731409620950303000,2.723302978515625,0.0624847412109375,-0.733673095703125,-0.6273956298828125
1731409620960323000,2.733322998046875,0.0467681884765625,-0.777374267578125,-0.5881195068359375
1731409620970344200,2.74334423828125,0.0386199951171875,-0.7858123779296875,-0.59197998046875
1731409620980365000,2.753364990234375,0.0757904052734375,-0.778656005859375,-0.61688232421875
1731409620990386000,2.763385986328125,0.08544921875,-0.76202392578125,-0.67022705078125
1731409621000406000,2.773406005859375,0.088653564453125,-0.729400634765625,-0.7142181396484375
1731409621010427000,2.783427001953125,0.050811767578125,-0.7094573974609375,-0.7209625244140625
1731409621020448000,2.793447998046875,-0.0257415771484375,-0.716461181640625,-0.7147369384765625
1731409621030468000,2.803468017578125,-0.0586700439453125,-0.735076904296875,-0.670623779296875
1731409621040489000,2.813489013671875,-0.0921478271484375,-0.75506591796875,-0.6208343505859375
1731409621050509800,2.823509765625,-0.1398162841796875,-0.7691497802734375,-0.594696044921875
1731409621060531000,2.833531005859375,-0.1574554443359375,-0.7843170166015625,-0.5729827880859375
1731409621070551000,2.843551025390625,-0.1241607666015625,-0.794769287109375,-0.54296875
1731409621080572000,2.853572021484375,-0.1097259521484375,-0.783233642578125,-0.5264129638671875
1731409621090593000,2.863593017578125,-0.118408203125,-0.7525482177734375,-0.5218963623046875
1731409621100614100,2.8736142578125,-0.1344451904296875,-0.7264251708984375,-0.5235595703125
1731409621110634000,2.883634033203125,-0.2708740234375,-0.6668853759765625,-0.5851287841796875
1731409621120655000,2.893655029296875,-0.3931732177734375,-0.6268768310546875,-0.688720703125
1731409621130676000,2.903676025390625,-0.4044036865234375,-0.63592529296875,-0.7425537109375
1731409621140696000,2.913696044921875,-0.41680908203125,-0.647125244140625,-0.754119873046875
1731409621150717000,2.923717041015625,-0.3994140625,-0.6714324951171875,-0.734832763671875
1731409621160738000,2.933738037109375,-0.3567962646484375,-0.7154998779296875,-0.6750335693359375
1731409621170759000,2.943759033203125,-0.321136474609375,-0.7579803466796875,-0.6153411865234375
1731409621180779000,2.953779052734375,-0.2693634033203125,-0.7713623046875,-0.57794189453125
1731409621190800000,2.9637998046875,-0.27178955078125,-0.74713134765625,-0.59283447265625
1731409621200821000,2.973821044921875,-0.3854827880859375,-0.712432861328125,-0.637237548828125
1731409621210841900,2.983841796875,-0.5290679931640625,-0.6848907470703125,-0.7052459716796875
1731409621220862000,2.993862060546875,-0.5896759033203125,-0.6428375244140625,-0.7342529296875
1731409621230882800,3.0038828125,-0.74029541015625,-0.6103057861328125,-0.7511749267578125
1731409621240904200,3.013904296875,-0.964874267578125,-0.579620361328125,-0.78863525390625
1731409621250924000,3.023924072265625,-1.097015380859375,-0.5350189208984375,-0.8488616943359375
1731409621260945200,3.033945068359375,-1.1203460693359375,-0.466278076171875,-0.8867034912109375
1731409621270966000,3.043966064453125,-1.075042724609375,-0.4054107666015625,-0.8963623046875
1731409621280987100,3.053987060546875,-1.049468994140625,-0.37994384765625,-0.862457275390625
1731409621291007000,3.064007080078125,-1.07452392578125,-0.3736419677734375,-0.8195648193359375
1731409621301028000,3.074028076171875,-1.0107269287109375,-0.3455047607421875,-0.79656982421875
1731409621311049000,3.084049072265625,-0.820526123046875,-0.273223876953125,-0.7675018310546875
1731409621321070000,3.094070068359375,-0.642578125,-0.2266998291015625,-0.7159423828125
1731409621331090000,3.10408984375,-0.491180419921875,-0.2057952880859375,-0.629974365234375
1731409621341111000,3.114111083984375,-0.3460540771484375,-0.1783599853515625,-0.5672454833984375
1731409621351132000,3.1241318359375,-0.1303558349609375,-0.1599273681640625,-0.5557403564453125
1731409621361152000,3.134152099609375,-0.0889739990234375,-0.22137451171875,-0.5160369873046875
1731409621371172900,3.1441728515625,4.1763916015625,-0.2847442626953125,-0.286834716796875
1731409621381194200,3.1541943359375,5.062164306640625,-1.00299072265625,-0.3739166259765625
1731409621391215000,3.164215087890625,1.7062225341796875,-0.3470458984375,-0.8233642578125
1731409621401235200,3.174235107421875,0.956268310546875,-0.01361083984375,-0.5864715576171875
1731409621411256000,3.184256103515625,0.4688720703125,-0.272705078125,-0.7498931884765625
1731409621421277000,3.19427685546875,0.192413330078125,-0.4131927490234375,-0.7841949462890625
1731409621431298000,3.204298095703125,0.2096405029296875,-0.494659423828125,-0.6497039794921875
1731409621441318100,3.214318115234375,0.143310546875,-0.7280731201171875,-0.55950927734375
1731409621451339000,3.224339111328125,0.089080810546875,-0.8417510986328125,-0.55938720703125
1731409621461359900,3.23435986328125,0.189300537109375,-0.802032470703125,-0.6597900390625
1731409621471380000,3.2443798828125,0.253692626953125,-0.7501983642578125,-0.7789459228515625
1731409621481401000,3.254401123046875,0.3066558837890625,-0.6865234375,-0.8583526611328125
1731409621491422000,3.264421875,0.3543701171875,-0.6020355224609375,-0.9122772216796875
1731409621501442800,3.27444287109375,0.384735107421875,-0.5536956787109375,-0.924224853515625
1731409621511463000,3.284462890625,0.3878936767578125,-0.5656280517578125,-0.877471923828125
1731409621521483800,3.29448388671875,0.34832763671875,-0.62530517578125,-0.817596435546875
1731409621531505200,3.304505126953125,0.28204345703125,-0.6639404296875,-0.769012451171875
1731409621541525000,3.31452490234375,0.1846160888671875,-0.7094573974609375,-0.7307281494140625
1731409621551546000,3.324546142578125,0.118438720703125,-0.7473297119140625,-0.6939544677734375
1731409621561567000,3.33456689453125,0.0948028564453125,-0.7493438720703125,-0.6750030517578125
1731409621571588000,3.344588134765625,0.0807952880859375,-0.726715087890625,-0.68475341796875
1731409621581608000,3.35460791015625,0.0733795166015625,-0.7032623291015625,-0.6943511962890625
1731409621591629000,3.364629150390625,0.0609588623046875,-0.69012451171875,-0.684844970703125
1731409621601650000,3.37464990234375,0.0401611328125,-0.70684814453125,-0.664398193359375
1731409621611671000,3.384671142578125,0.0232086181640625,-0.7230072021484375,-0.626983642578125
1731409621621691000,3.39469091796875,0.0074462890625,-0.74786376953125,-0.5876617431640625
1731409621631712000,3.4047119140625,-0.0040283203125,-0.766937255859375,-0.56402587890625
1731409621641732900,3.41473291015625,0.0075836181640625,-0.7766876220703125,-0.5457000732421875
1731409621651753000,3.4247529296875,0.0283203125,-0.7852020263671875,-0.5389862060546875
1731409621661774000,3.434774169921875,0.0568695068359375,-0.78717041015625,-0.53033447265625
1731409621671795200,3.444795166015625,0.0797576904296875,-0.7879180908203125,-0.5293426513671875
1731409621681816000,3.454816162109375,0.1005401611328125,-0.7823638916015625,-0.5388946533203125
1731409621691836200,3.464836181640625,0.0971527099609375,-0.78375244140625,-0.5413055419921875
1731409621701857000,3.47485693359375,0.09173583984375,-0.784637451171875,-0.5578460693359375
1731409621711878100,3.484878173828125,0.1224517822265625,-0.7860565185546875,-0.5663299560546875
1731409621721899000,3.49489892578125,0.1505126953125,-0.786651611328125,-0.5582733154296875
1731409621731919000,3.504919189453125,0.157257080078125,-0.786773681640625,-0.5497894287109375
1731409621741940000,3.51493994140625,0.1682891845703125,-0.79327392578125,-0.546234130859375
1731409621751961000,3.524961181640625,0.1826324462890625,-0.8080902099609375,-0.53692626953125
1731409621761981000,3.53498095703125,0.1789093017578125,-0.812896728515625,-0.5382232666015625
1731409621772002000,3.545001953125,0.196380615234375,-0.8166656494140625,-0.5457611083984375
1731409621782023000,3.55502294921875,0.2391510009765625,-0.8306427001953125,-0.5492095947265625
1731409621792044000,3.5650439453125,0.287689208984375,-0.84033203125,-0.537628173828125
1731409621802064000,3.57506396484375,0.321990966796875,-0.8444671630859375,-0.517059326171875
1731409621812085200,3.585085205078125,0.3475799560546875,-0.8452911376953125,-0.5015411376953125
1731409621822106000,3.595106201171875,0.3617706298828125,-0.8354034423828125,-0.50457763671875
1731409621832127000,3.605126953125,0.366546630859375,-0.8236846923828125,-0.5119476318359375
1731409621842147000,3.61514697265625,0.378631591796875,-0.839813232421875,-0.5057220458984375
1731409621852168200,3.625168212890625,0.3858642578125,-0.844573974609375,-0.5009765625
1731409621862189000,3.63518896484375,0.3796844482421875,-0.833465576171875,-0.5065765380859375
1731409621872209200,3.645209228515625,0.3808441162109375,-0.824981689453125,-0.5019683837890625
1731409621882230000,3.65522998046875,0.379150390625,-0.839599609375,-0.498565673828125
1731409621892251100,3.665251220703125,0.3765411376953125,-0.8637237548828125,-0.485137939453125
1731409621902272000,3.67527197265625,0.377838134765625,-0.8748626708984375,-0.4538116455078125
1731409621912292000,3.6852919921875,0.3672943115234375,-0.88330078125,-0.4225616455078125
1731409621922313000,3.69531298828125,0.353057861328125,-0.8925628662109375,-0.4015350341796875
1731409621932333800,3.705333740234375,0.3384552001953125,-0.895599365234375,-0.391021728515625
1731409621942355200,3.715355224609375,0.3042449951171875,-0.89434814453125,-0.367767333984375
1731409621952375000,3.725375,0.2771759033203125,-0.9044952392578125,-0.347900390625
1731409621962396200,3.735396240234375,0.2671051025390625,-0.9102935791015625,-0.3381805419921875
1731409621972417000,3.7454169921875,0.2577056884765625,-0.8998260498046875,-0.3391571044921875
1731409621982438100,3.755438232421875,0.2667999267578125,-0.883758544921875,-0.351837158203125
1731409621992458000,3.7654580078125,0.2974700927734375,-0.8666229248046875,-0.3565826416015625
1731409622002479000,3.77547900390625,0.3192596435546875,-0.85406494140625,-0.3571014404296875
1731409622012500000,3.7855,0.335174560546875,-0.867462158203125,-0.3681640625
1731409622022520000,3.79552001953125,0.362884521484375,-0.8612060546875,-0.39410400390625
1731409622032541000,3.805541015625,0.379180908203125,-0.8372650146484375,-0.421234130859375
1731409622042562000,3.81556201171875,0.3831634521484375,-0.822784423828125,-0.4456329345703125
1731409622052583000,3.8255830078125,0.3868865966796875,-0.8026885986328125,-0.467681884765625
1731409622062603000,3.83560302734375,0.3809356689453125,-0.7803192138671875,-0.478118896484375
1731409622072623900,3.845623779296875,0.368377685546875,-0.774688720703125,-0.479248046875
1731409622082645000,3.85564501953125,0.3546905517578125,-0.77099609375,-0.464935302734375
1731409622092666000,3.865666015625,0.300201416015625,-0.75079345703125,-0.4295501708984375
1731409622102686000,3.87568603515625,0.2189178466796875,-0.719207763671875,-0.38800048828125
1731409622112707000,3.88570703125,0.21343994140625,-0.7490386962890625,-0.3606414794921875
1731409622122728200,3.895728271484375,0.2851104736328125,-0.8337249755859375,-0.3511810302734375
1731409622132748000,3.905748046875,0.339324951171875,-0.8967132568359375,-0.36590576171875
1731409622142769200,3.91576904296875,0.409423828125,-0.9166717529296875,-0.3892974853515625
1731409622152790000,3.9257900390625,0.448822021484375,-0.87982177734375,-0.3961334228515625
1731409622162811100,3.93581103515625,0.458343505859375,-0.855377197265625,-0.394317626953125
1731409622172831000,3.9458310546875,0.4599609375,-0.9006195068359375,-0.3974151611328125
1731409622182852000,3.95585205078125,0.4732818603515625,-0.9697113037109375,-0.4152374267578125
1731409622192873000,3.965873046875,0.4673004150390625,-0.9766387939453125,-0.4409332275390625
1731409622202894000,3.97589404296875,0.427978515625,-0.9356689453125,-0.4907684326171875
1731409622212914000,3.985913818359375,0.3614044189453125,-0.899505615234375,-0.5415496826171875
1731409622222935000,3.99593505859375,0.2787017822265625,-0.8545989990234375,-0.5728759765625
1731409622232956000,4.005955810546875,0.199432373046875,-0.7964019775390625,-0.59381103515625
1731409622242976000,4.01597607421875,0.1494293212890625,-0.7601470947265625,-0.57659912109375
1731409622252997000,4.0259970703125,0.1455078125,-0.78515625,-0.53076171875
1731409622263018200,4.036018310546875,0.1656951904296875,-0.8486175537109375,-0.456939697265625
1731409622273039000,4.0460390625,0.1854248046875,-0.9056549072265625,-0.3914642333984375
1731409622283059200,4.05605908203125,0.198760986328125,-0.935272216796875,-0.337371826171875
1731409622293080000,4.066080078125,0.20465087890625,-0.944793701171875,-0.2890167236328125
1731409622303101200,4.07610107421875,0.2120819091796875,-0.9467315673828125,-0.2584075927734375
1731409622313122000,4.0861220703125,0.218353271484375,-0.9549560546875,-0.249542236328125
1731409622323142100,4.09614208984375,0.232452392578125,-0.9443511962890625,-0.2751922607421875
1731409622333163000,4.1061630859375,0.2679290771484375,-0.9266815185546875,-0.3193359375
1731409622343184000,4.116183837890625,0.3085784912109375,-0.943939208984375,-0.3498077392578125
1731409622353204000,4.126203857421875,0.3604278564453125,-0.990692138671875,-0.3678436279296875
1731409622363225000,4.13622509765625,0.4112091064453125,-1.0252532958984375,-0.3780670166015625
1731409622373246000,4.146245849609375,0.41400146484375,-1.030426025390625,-0.4019622802734375
1731409622383266800,4.156266845703125,0.38134765625,-1.0129547119140625,-0.453826904296875
1731409622393287000,4.166286865234375,0.3542022705078125,-0.9891510009765625,-0.5083465576171875
1731409622403308000,4.17630810546875,0.3392486572265625,-0.9448089599609375,-0.52337646484375
1731409622413329200,4.1863291015625,0.35015869140625,-0.897003173828125,-0.51007080078125
1731409622423350000,4.19635009765625,0.3163299560546875,-0.8865814208984375,-0.5052490234375
1731409622433370000,4.2063701171875,0.2308197021484375,-0.9015960693359375,-0.53179931640625
1731409622443391000,4.216390869140625,0.16436767578125,-0.894500732421875,-0.54998779296875
1731409622453412000,4.226412109375,0.167449951171875,-0.8816375732421875,-0.5146636962890625
1731409622463432200,4.23643212890625,0.1855010986328125,-0.864471435546875,-0.4581146240234375
1731409622473453000,4.246453125,0.2353973388671875,-0.833251953125,-0.4004364013671875
1731409622483474000,4.256473876953125,0.3136749267578125,-0.796234130859375,-0.3277130126953125
1731409622493495000,4.2664951171875,0.3787841796875,-0.7495269775390625,-0.269012451171875
1731409622503515000,4.276514892578125,0.39276123046875,-0.7161865234375,-0.242279052734375
1731409622513536000,4.286535888671875,0.3637847900390625,-0.720123291015625,-0.2073974609375
1731409622523556900,4.296556884765625,0.329315185546875,-0.7524566650390625,-0.1767578125
1731409622533578200,4.306578125,0.293487548828125,-0.783355712890625,-0.1788787841796875
1731409622543597800,4.316597900390625,0.2034454345703125,-0.7319183349609375,-0.2103271484375
1731409622553619200,4.326619140625,0.12457275390625,-0.7075958251953125,-0.218841552734375
1731409622563640000,4.33664013671875,0.2214508056640625,-0.869476318359375,-0.1790313720703125
1731409622573660200,4.34666015625,0.299652099609375,-0.9788360595703125,-0.1989288330078125
1731409622583681000,4.356680908203125,0.3479156494140625,-1.00811767578125,-0.2536773681640625
1731409622593702100,4.3667021484375,0.3896331787109375,-0.976837158203125,-0.28466796875
1731409622603723800,4.376723876953125,0.3992462158203125,-0.9174346923828125,-0.2891082763671875
1731409622613743900,4.386743896484375,0.3625335693359375,-0.866973876953125,-0.292694091796875
1731409622623764700,4.3967646484375,0.3164520263671875,-0.848907470703125,-0.29412841796875
1731409622633785600,4.40678564453125,0.2922821044921875,-0.8442230224609375,-0.2833404541015625
1731409622643806700,4.416806640625,0.28143310546875,-0.8409881591796875,-0.281036376953125
1731409622653826800,4.426826904296875,0.2821197509765625,-0.82366943359375,-0.2799072265625
1731409622663847700,4.43684765625,0.275177001953125,-0.819488525390625,-0.2525634765625
1731409622673868500,4.44686865234375,0.279510498046875,-0.8415679931640625,-0.213714599609375
1731409622683890000,4.456889892578125,0.3202056884765625,-0.8786163330078125,-0.203643798828125
1731409622693909800,4.46690966796875,0.3703155517578125,-0.904296875,-0.2506103515625
1731409622703931000,4.476930908203125,0.418792724609375,-0.8977203369140625,-0.3270263671875
1731409622713951700,4.48695166015625,0.4413909912109375,-0.8828887939453125,-0.372161865234375
1731409622723971800,4.496971923828125,0.425201416015625,-0.8784027099609375,-0.3589019775390625
1731409622733992700,4.50699267578125,0.3804931640625,-0.8831634521484375,-0.322540283203125
1731409622744013800,4.517013916015625,0.3114166259765625,-0.87640380859375,-0.3143157958984375
1731409622754034700,4.52703466796875,0.2430877685546875,-0.851470947265625,-0.3496246337890625
1731409622764054800,4.5370546875,0.2135772705078125,-0.840728759765625,-0.396270751953125
1731409622774075600,4.54707568359375,0.223785400390625,-0.8380889892578125,-0.4228668212890625
1731409622784096800,4.5570966796875,0.255889892578125,-0.852935791015625,-0.4146270751953125
1731409622794116600,4.56711669921875,0.2909088134765625,-0.8830413818359375,-0.3948516845703125
1731409622804137700,4.5771376953125,0.3147430419921875,-0.9046630859375,-0.39837646484375
1731409622814158600,4.58715869140625,0.331787109375,-0.929840087890625,-0.41033935546875
1731409622824179700,4.5971796875,0.3450469970703125,-0.96832275390625,-0.4147186279296875
1731409622834199600,4.607199462890625,0.352142333984375,-0.9953155517578125,-0.4178466796875
1731409622844220700,4.617220703125,0.34259033203125,-1.00640869140625,-0.419036865234375
1731409622854241800,4.62724169921875,0.3267822265625,-1.007720947265625,-0.41278076171875
1731409622864263000,4.637262939453125,0.32611083984375,-0.9729766845703125,-0.4149322509765625
1731409622874282800,4.64728271484375,0.3149871826171875,-0.9265289306640625,-0.41656494140625
1731409622884304000,4.657303955078125,0.31903076171875,-0.882110595703125,-0.40179443359375
1731409622894324700,4.66732470703125,0.3241729736328125,-0.849273681640625,-0.378021240234375
1731409622904345900,4.677345947265625,0.343109130859375,-0.8227691650390625,-0.3477630615234375
1731409622914365700,4.68736572265625,0.3155517578125,-0.812957763671875,-0.31793212890625
1731409622924386800,4.69738671875,0.277496337890625,-0.8100128173828125,-0.309906005859375
1731409622934407700,4.70740771484375,0.2831878662109375,-0.8325653076171875,-0.3078460693359375
1731409622944427800,4.717427734375,0.326416015625,-0.8517913818359375,-0.2893829345703125
1731409622954448600,4.72744873046875,0.3761749267578125,-0.8538818359375,-0.2718505859375
1731409622964469800,4.7374697265625,0.3821868896484375,-0.85943603515625,-0.252716064453125
1731409622974490600,4.74749072265625,0.340545654296875,-0.8546142578125,-0.2386932373046875
1731409622984510700,4.7575107421875,0.2731170654296875,-0.8361053466796875,-0.2527313232421875
1731409622994531600,4.767531494140625,0.216064453125,-0.826995849609375,-0.267486572265625
1731409623004553000,4.777552978515625,0.19097900390625,-0.8459625244140625,-0.2524261474609375
1731409623014573800,4.78757373046875,0.2163238525390625,-0.8739471435546875,-0.2259521484375
1731409623024594000,4.797593994140625,0.2691192626953125,-0.8909454345703125,-0.1988525390625
1731409623034614800,4.80761474609375,0.3152313232421875,-0.9224395751953125,-0.1868438720703125
1731409623044635600,4.8176357421875,0.3444976806640625,-0.94976806640625,-0.191131591796875
1731409623054655700,4.82765576171875,0.36181640625,-0.970184326171875,-0.20477294921875
1731409623064676900,4.8376767578125,0.3537445068359375,-0.963226318359375,-0.215362548828125
1731409623074697700,4.84769775390625,0.3291473388671875,-0.9431915283203125,-0.216064453125
1731409623084718600,4.857718505859375,0.303985595703125,-0.9317474365234375,-0.20196533203125
1731409623094738700,4.86773876953125,0.279541015625,-0.9388580322265625,-0.179779052734375
1731409623104759800,4.877759765625,0.289764404296875,-0.962982177734375,-0.1527252197265625
1731409623114780700,4.88778076171875,0.298004150390625,-0.992523193359375,-0.114990234375
1731409623124801500,4.897801513671875,0.29925537109375,-1.0199127197265625,-0.0868377685546875
1731409623134821600,4.907821533203125,0.3007659912109375,-1.0356903076171875,-0.07232666015625
1731409623144842800,4.9178427734375,0.2949981689453125,-1.0366668701171875,-0.0738983154296875
1731409623154863900,4.92786376953125,0.28924560546875,-1.0345001220703125,-0.07867431640625
1731409623164884000,4.937884033203125,0.292327880859375,-1.038330078125,-0.0729827880859375
1731409623174904800,4.94790478515625,0.2918243408203125,-1.03277587890625,-0.070556640625
1731409623184925700,4.95792578125,0.29022216796875,-1.010009765625,-0.07586669921875
1731409623194946800,4.96794677734375,0.278656005859375,-0.9824066162109375,-0.0801849365234375
1731409623204966700,4.977966552734375,0.2656402587890625,-0.95770263671875,-0.0753936767578125
1731409623214987800,4.98798779296875,0.2551727294921875,-0.9327545166015625,-0.0578155517578125
1731409623225008600,4.998008544921875,0.2400665283203125,-0.8929443359375,-0.04595947265625
1731409623235029800,5.00802978515625,0.1976318359375,-0.844512939453125,-0.0500946044921875
1731409623245049600,5.018049560546875,0.128753662109375,-0.7899017333984375,-0.0606231689453125
1731409623255070700,5.02807080078125,0.0714874267578125,-0.769256591796875,-0.0792999267578125
1731409623265091600,5.038091552734375,0.0994873046875,-0.8214874267578125,-0.076171875
1731409623275111700,5.048111572265625,0.2247161865234375,-0.8863983154296875,-0.0702667236328125
1731409623285132500,5.058132568359375,0.3596649169921875,-0.945648193359375,-0.089630126953125
1731409623295154000,5.06815380859375,0.430450439453125,-0.99139404296875,-0.1228179931640625
1731409623305174800,5.0781748046875,0.4212188720703125,-1.02294921875,-0.1599273681640625
1731409623315195000,5.08819482421875,0.382293701171875,-1.04412841796875,-0.187652587890625
1731409623325215700,5.0982158203125,0.351654052734375,-1.063934326171875,-0.2060546875
1731409623335236900,5.10823681640625,0.339752197265625,-1.055908203125,-0.217529296875
1731409623345257700,5.1182578125,0.3396759033203125,-1.0267791748046875,-0.232330322265625
1731409623355277800,5.12827783203125,0.3229827880859375,-0.9984283447265625,-0.2541656494140625
1731409623365298700,5.138298583984375,0.31268310546875,-0.98321533203125,-0.2719268798828125
1731409623375319800,5.14831982421875,0.338836669921875,-0.9844207763671875,-0.2640380859375
1731409623385339600,5.158339599609375,0.355560302734375,-0.9735107421875,-0.2639312744140625
1731409623395360800,5.16836083984375,0.3419952392578125,-0.9551544189453125,-0.2817840576171875
1731409623405381600,5.178381591796875,0.3218994140625,-0.928802490234375,-0.314300537109375
1731409623415402800,5.18840283203125,0.3041839599609375,-0.907379150390625,-0.350677490234375
1731409623425422600,5.198422607421875,0.2923736572265625,-0.9010162353515625,-0.3580169677734375
1731409623435443700,5.208443603515625,0.2976837158203125,-0.8992767333984375,-0.3388519287109375
1731409623445464800,5.21846484375,0.298553466796875,-0.8923492431640625,-0.3202362060546875
1731409623455485700,5.228485595703125,0.296600341796875,-0.884002685546875,-0.30584716796875
1731409623465505800,5.238505859375,0.2669677734375,-0.873321533203125,-0.2890472412109375
1731409623475527000,5.24852685546875,0.261871337890625,-0.86376953125,-0.27227783203125
1731409623485547800,5.2585478515625,0.2821502685546875,-0.8640289306640625,-0.2594146728515625
1731409623495568000,5.26856787109375,0.303558349609375,-0.8613128662109375,-0.2519683837890625
1731409623505588700,5.278588623046875,0.3193817138671875,-0.859283447265625,-0.260711669921875
1731409623515609900,5.28860986328125,0.3179168701171875,-0.8675689697265625,-0.2880096435546875
1731409623525630700,5.298630615234375,0.32073974609375,-0.890472412109375,-0.3065338134765625
1731409623535650800,5.30865087890625,0.3217010498046875,-0.9117431640625,-0.3018951416015625
1731409623545671700,5.318671630859375,0.316375732421875,-0.9287567138671875,-0.2823638916015625
1731409623555692800,5.32869287109375,0.309417724609375,-0.9464111328125,-0.25262451171875
1731409623565713700,5.338713623046875,0.305023193359375,-0.9510650634765625,-0.2271881103515625
1731409623575733800,5.348733642578125,0.29278564453125,-0.947967529296875,-0.2155914306640625
1731409623585754600,5.358754638671875,0.285552978515625,-0.9334564208984375,-0.2178497314453125
1731409623595775700,5.368775634765625,0.2838897705078125,-0.918670654296875,-0.2289886474609375
1731409623605796000,5.378796142578125,0.2889404296875,-0.907073974609375,-0.235443115234375
1731409623615817000,5.38881689453125,0.3006439208984375,-0.8935699462890625,-0.23565673828125
1731409623625838000,5.398838134765625,0.3070220947265625,-0.8742828369140625,-0.2324371337890625
1731409623635859000,5.40885888671875,0.3011627197265625,-0.8633270263671875,-0.22802734375
1731409623645879000,5.418879150390625,0.2932891845703125,-0.8625335693359375,-0.23638916015625
1731409623655900200,5.428900146484375,0.2888641357421875,-0.87237548828125,-0.25341796875
1731409623665921300,5.43892138671875,0.2804107666015625,-0.8764495849609375,-0.260101318359375
1731409623675942100,5.448942138671875,0.2633209228515625,-0.881378173828125,-0.26617431640625
1731409623685962200,5.458962158203125,0.27496337890625,-0.8983612060546875,-0.2606964111328125
1731409623695983000,5.468983154296875,0.2962493896484375,-0.9080352783203125,-0.2543487548828125
1731409623706004200,5.479004150390625,0.3158721923828125,-0.922607421875,-0.2637176513671875
1731409623716024000,5.489024169921875,0.338104248046875,-0.951080322265625,-0.2699127197265625
1731409623726045200,5.499045166015625,0.3482208251953125,-0.972320556640625,-0.2741546630859375
1731409623736066000,5.509066162109375,0.351165771484375,-0.9799652099609375,-0.28509521484375
1731409623746087200,5.519087158203125,0.34600830078125,-0.97357177734375,-0.2918243408203125
1731409623756107000,5.52910693359375,0.32891845703125,-0.9490814208984375,-0.2926788330078125
1731409623766128000,5.539128173828125,0.30352783203125,-0.9250030517578125,-0.3005218505859375
1731409623776149000,5.54914892578125,0.28631591796875,-0.8980712890625,-0.3115386962890625
1731409623786170000,5.559170166015625,0.276702880859375,-0.86669921875,-0.32147216796875
1731409623796190000,5.56918994140625,0.26104736328125,-0.8484344482421875,-0.3291778564453125
1731409623806211300,5.57921142578125,0.2661285400390625,-0.8428192138671875,-0.3259429931640625
1731409623816232200,5.589232177734375,0.2814483642578125,-0.849578857421875,-0.315521240234375
1731409623826252300,5.599252197265625,0.2717132568359375,-0.8509368896484375,-0.3217620849609375
1731409623836273200,5.609273193359375,0.2444610595703125,-0.8407440185546875,-0.34130859375
1731409623846294300,5.619294189453125,0.2297821044921875,-0.8377532958984375,-0.3670501708984375
1731409623856315100,5.629315185546875,0.2464599609375,-0.8570709228515625,-0.3938751220703125
1731409623866335200,5.639335205078125,0.2852020263671875,-0.8965606689453125,-0.3962249755859375
1731409623876356000,5.649356201171875,0.3458251953125,-0.9359893798828125,-0.3983306884765625
1731409623886377200,5.659377197265625,0.383575439453125,-0.9761810302734375,-0.3957977294921875
1731409623896398000,5.669398193359375,0.3740692138671875,-0.99139404296875,-0.38824462890625
1731409623906418200,5.679418212890625,0.333099365234375,-0.978515625,-0.385040283203125
1731409623916439000,5.68943896484375,0.2967071533203125,-0.953338623046875,-0.3819122314453125
1731409623926460000,5.6994599609375,0.269317626953125,-0.9372100830078125,-0.36932373046875
1731409623936480000,5.70947998046875,0.269012451171875,-0.920196533203125,-0.3544921875
1731409623946501000,5.719501220703125,0.274658203125,-0.90045166015625,-0.35009765625
1731409623956522200,5.729522216796875,0.2748260498046875,-0.882843017578125,-0.36138916015625
1731409623966543000,5.739543212890625,0.2704925537109375,-0.8788299560546875,-0.3777618408203125
1731409623976563200,5.749563232421875,0.258697509765625,-0.878662109375,-0.380889892578125
1731409623986584000,5.759583984375,0.2599945068359375,-0.8846435546875,-0.4039459228515625
1731409623996605200,5.769605224609375,0.27581787109375,-0.8976287841796875,-0.421478271484375
1731409624006626000,5.7796259765625,0.3095855712890625,-0.89678955078125,-0.421722412109375
1731409624016646100,5.789646240234375,0.3205413818359375,-0.890960693359375,-0.4133758544921875
1731409624026667000,5.7996669921875,0.32452392578125,-0.8875274658203125,-0.402862548828125
1731409624036688100,5.809688232421875,0.3096923828125,-0.889404296875,-0.39910888671875
1731409624046708200,5.819708251953125,0.3011932373046875,-0.89263916015625,-0.3985443115234375
1731409624056729000,5.82972900390625,0.3046112060546875,-0.88592529296875,-0.388397216796875
1731409624066750000,5.83975,0.3143310546875,-0.8764495849609375,-0.369659423828125
1731409624076771000,5.84977099609375,0.3235015869140625,-0.86749267578125,-0.3542633056640625
1731409624086791000,5.859791015625,0.32574462890625,-0.8595428466796875,-0.34796142578125
1731409624096812000,5.86981201171875,0.321868896484375,-0.88653564453125,-0.3516998291015625
1731409624106833200,5.879833251953125,0.327392578125,-0.920989990234375,-0.3527069091796875
1731409624116854300,5.889854248046875,0.3322296142578125,-0.9349517822265625,-0.34423828125
1731409624126874000,5.8998740234375,0.3338775634765625,-0.92626953125,-0.340118408203125
1731409624136895200,5.909895263671875,0.3298492431640625,-0.8976287841796875,-0.341552734375
1731409624146916000,5.919916015625,0.3223724365234375,-0.868194580078125,-0.3448486328125
1731409624156936200,5.929936279296875,0.3252105712890625,-0.84490966796875,-0.3438720703125
1731409624166957000,5.93995703125,0.3348388671875,-0.826019287109375,-0.326385498046875
1731409624176978200,5.949978271484375,0.3345794677734375,-0.8115081787109375,-0.311920166015625
1731409624186999000,5.9599990234375,0.3404693603515625,-0.815887451171875,-0.3057403564453125
1731409624197019100,5.97001904296875,0.3434600830078125,-0.8419342041015625,-0.31549072265625
1731409624207040000,5.9800400390625,0.3425445556640625,-0.8631439208984375,-0.3289947509765625
1731409624217061000,5.99006103515625,0.342864990234375,-0.869049072265625,-0.33465576171875
1731409624227082000,6.00008203125,0.3420257568359375,-0.872711181640625,-0.3345947265625
1731409624237102000,6.01010205078125,0.3449249267578125,-0.8716888427734375,-0.336395263671875
1731409624247123200,6.020123291015625,0.3601837158203125,-0.861602783203125,-0.346099853515625
1731409624257144300,6.030144287109375,0.36480712890625,-0.8542022705078125,-0.3559112548828125
1731409624267164200,6.0401640625,0.3691253662109375,-0.8704071044921875,-0.361846923828125
1731409624277185300,6.050185302734375,0.365509033203125,-0.886138916015625,-0.3575897216796875
1731409624287206100,6.0602060546875,0.354156494140625,-0.8820648193359375,-0.352569580078125
1731409624297227300,6.070227294921875,0.3484344482421875,-0.87371826171875,-0.3508453369140625
1731409624307247000,6.0802470703125,0.3496246337890625,-0.8644866943359375,-0.359710693359375
1731409624317268200,6.090268310546875,0.3487091064453125,-0.8568267822265625,-0.3733978271484375
1731409624327289000,6.1002890625,0.3543701171875,-0.8495635986328125,-0.3838653564453125
1731409624337309200,6.11030908203125,0.3541107177734375,-0.8627777099609375,-0.3773651123046875
1731409624347330000,6.120330078125,0.3439788818359375,-0.8812408447265625,-0.36871337890625
1731409624357351200,6.13035107421875,0.33447265625,-0.892242431640625,-0.364776611328125
1731409624367372000,6.1403720703125,0.3306732177734375,-0.8979034423828125,-0.3657073974609375
1731409624377392000,6.15039208984375,0.3344268798828125,-0.895721435546875,-0.36846923828125
1731409624387413000,6.1604130859375,0.3430938720703125,-0.888824462890625,-0.373199462890625
1731409624397434000,6.17043408203125,0.34442138671875,-0.882720947265625,-0.3741912841796875
1731409624407455200,6.180455322265625,0.3425445556640625,-0.879058837890625,-0.372711181640625
1731409624417475300,6.190475341796875,0.3433990478515625,-0.867950439453125,-0.370391845703125
1731409624427496200,6.20049609375,0.3436279296875,-0.859619140625,-0.368560791015625
1731409624437517000,6.21051708984375,0.34649658203125,-0.8603668212890625,-0.3607330322265625
1731409624447537200,6.220537109375,0.352508544921875,-0.859710693359375,-0.35833740234375
1731409624457558300,6.230558349609375,0.3598175048828125,-0.8593902587890625,-0.3648223876953125
1731409624467579100,6.2405791015625,0.36419677734375,-0.855865478515625,-0.3750152587890625
1731409624477600000,6.25060009765625,0.3707427978515625,-0.8543853759765625,-0.3699493408203125
1731409624487620000,6.2606201171875,0.37664794921875,-0.8590850830078125,-0.350433349609375
1731409624497641000,6.270640869140625,0.377532958984375,-0.8632659912109375,-0.3327178955078125
1731409624507662000,6.280662109375,0.3829498291015625,-0.8649444580078125,-0.329132080078125
1731409624517683000,6.290682861328125,0.385223388671875,-0.8631744384765625,-0.3296051025390625
1731409624527703000,6.300703125,0.386474609375,-0.8622283935546875,-0.3365631103515625
1731409624537724000,6.310723876953125,0.381103515625,-0.8598175048828125,-0.343475341796875
1731409624547745300,6.320745361328125,0.3679351806640625,-0.85491943359375,-0.345672607421875
1731409624557765000,6.33076513671875,0.3553619384765625,-0.853363037109375,-0.343231201171875
1731409624567786200,6.3407861328125,0.3489990234375,-0.85638427734375,-0.3394317626953125
1731409624577807000,6.35080712890625,0.3458404541015625,-0.8529205322265625,-0.34161376953125
1731409624587828200,6.360828125,0.368377685546875,-0.8484039306640625,-0.354705810546875
1731409624597848000,6.37084814453125,0.3868408203125,-0.8443145751953125,-0.370880126953125
1731409624607869000,6.380868896484375,0.4129791259765625,-0.8388519287109375,-0.37799072265625
1731409624617889800,6.390889892578125,0.40277099609375,-0.838775634765625,-0.3774566650390625
1731409624627911000,6.400910888671875,0.3996429443359375,-0.8404541015625,-0.3796539306640625
1731409624637930800,6.4109306640625,0.371551513671875,-0.8405609130859375,-0.38525390625
1731409624647952000,6.420951904296875,0.3736572265625,-0.8412017822265625,-0.39141845703125
1731409624657972700,6.43097265625,0.3954010009765625,-0.8415374755859375,-0.3907012939453125
1731409624667992800,6.440992919921875,0.41668701171875,-0.8408050537109375,-0.3882904052734375
1731409624678013700,6.451013671875,0.4223480224609375,-0.83648681640625,-0.392242431640625
1731409624688034800,6.461034912109375,0.405853271484375,-0.831573486328125,-0.3988800048828125
1731409624698055700,6.4710556640625,0.3923187255859375,-0.824493408203125,-0.3946533203125
1731409624708075800,6.48107568359375,0.3884735107421875,-0.8131866455078125,-0.38385009765625
1731409624718096600,6.4910966796875,0.3928070068359375,-0.810638427734375,-0.37255859375
1731409624728117800,6.50111767578125,0.3972625732421875,-0.8165435791015625,-0.3620758056640625
1731409624738138600,6.511138671875,0.4033355712890625,-0.82305908203125,-0.355010986328125
1731409624748158700,6.52115869140625,0.39886474609375,-0.8291168212890625,-0.349365234375
1731409624758179800,6.531179931640625,0.397857666015625,-0.8358917236328125,-0.342254638671875
1731409624768201000,6.541200927734375,0.3959808349609375,-0.8439788818359375,-0.3348541259765625
1731409624778220800,6.551220703125,0.3950347900390625,-0.8439178466796875,-0.3310089111328125
1731409624788242000,6.561241943359375,0.3839263916015625,-0.8371429443359375,-0.3354949951171875
1731409624798262800,6.5712626953125,0.3909149169921875,-0.83343505859375,-0.3457794189453125
1731409624808284000,6.581283935546875,0.40887451171875,-0.8298797607421875,-0.35333251953125
1731409624818303700,6.5913037109375,0.42303466796875,-0.8277587890625,-0.34844970703125
1731409624828324900,6.601324951171875,0.4078369140625,-0.81695556640625,-0.346923828125
1731409624838345700,6.611345703125,0.3651885986328125,-0.7996063232421875,-0.35919189453125
1731409624848365800,6.62136572265625,0.3499603271484375,-0.7840728759765625,-0.3654327392578125
1731409624858386700,6.63138671875,0.351287841796875,-0.7719268798828125,-0.362518310546875
1731409624868407800,6.64140771484375,0.3670654296875,-0.75775146484375,-0.3572540283203125
1731409624878428700,6.6514287109375,0.3917694091796875,-0.7516326904296875,-0.356719970703125
1731409624888448800,6.66144873046875,0.408538818359375,-0.763671875,-0.3587799072265625
1731409624898469600,6.6714697265625,0.41973876953125,-0.7787017822265625,-0.3570556640625
1731409624908491000,6.681490966796875,0.4078521728515625,-0.7919158935546875,-0.3545989990234375
1731409624918511900,6.691511962890625,0.3870697021484375,-0.8036346435546875,-0.35736083984375
1731409624928532000,6.701531982421875,0.368316650390625,-0.8152618408203125,-0.3681793212890625
1731409624938552800,6.711552734375,0.3544769287109375,-0.8235015869140625,-0.389892578125
1731409624948574000,6.721573974609375,0.3647918701171875,-0.8248748779296875,-0.422760009765625
1731409624958593800,6.73159375,0.3819427490234375,-0.8206939697265625,-0.46307373046875
1731409624968615000,6.741614990234375,0.4014739990234375,-0.811859130859375,-0.496826171875
1731409624978635800,6.7516357421875,0.412139892578125,-0.8045654296875,-0.521484375
1731409624988656600,6.76165673828125,0.3960418701171875,-0.7889404296875,-0.53118896484375
1731409624998676700,6.7716767578125,0.363067626953125,-0.7747039794921875,-0.537445068359375
1731409625008697900,6.78169775390625,0.337432861328125,-0.7707672119140625,-0.5308685302734375
1731409625018718700,6.79171875,0.312469482421875,-0.76177978515625,-0.51910400390625
1731409625028739600,6.801739501953125,0.2991180419921875,-0.75592041015625,-0.5102996826171875
1731409625038759700,6.811759765625,0.319366455078125,-0.761199951171875,-0.503326416015625
1731409625048780800,6.82178076171875,0.33306884765625,-0.7784576416015625,-0.50885009765625
1731409625058802000,6.831802001953125,0.3432769775390625,-0.7933349609375,-0.54022216796875
1731409625068822000,6.841822021484375,0.3706207275390625,-0.8018035888671875,-0.585357666015625
1731409625078843000,6.8518427734375,0.3899993896484375,-0.8154754638671875,-0.6294097900390625
1731409625088863700,6.86186376953125,0.3847808837890625,-0.81707763671875,-0.6615447998046875
1731409625098884900,6.871884765625,0.37396240234375,-0.7998199462890625,-0.6714630126953125
1731409625108905000,6.881905029296875,0.35723876953125,-0.7740478515625,-0.661651611328125
1731409625118925800,6.89192578125,0.318450927734375,-0.7464447021484375,-0.6392822265625
1731409625128946700,6.90194677734375,0.28887939453125,-0.726318359375,-0.60504150390625
1731409625138967800,6.9119677734375,0.2563629150390625,-0.711151123046875,-0.57049560546875
1731409625148987600,6.921987548828125,0.234710693359375,-0.7123565673828125,-0.5408782958984375
1731409625159008800,6.9320087890625,0.2413482666015625,-0.709686279296875,-0.508087158203125
1731409625169029600,6.942029541015625,0.26116943359375,-0.7034759521484375,-0.473052978515625
1731409625179049700,6.9520498046875,0.2989959716796875,-0.6979522705078125,-0.4651641845703125
1731409625189070600,6.962070556640625,0.3435516357421875,-0.7010650634765625,-0.478607177734375
1731409625199091700,6.972091796875,0.36328125,-0.716339111328125,-0.5022735595703125
1731409625209112800,6.98211279296875,0.374664306640625,-0.72418212890625,-0.536163330078125
1731409625219133000,6.9921328125,0.3660430908203125,-0.7265777587890625,-0.5731353759765625
1731409625229153800,7.00215380859375,0.3383636474609375,-0.726898193359375,-0.5969390869140625
1731409625239175000,7.0121748046875,0.3294525146484375,-0.7288055419921875,-0.598297119140625
1731409625249195800,7.02219580078125,0.3053436279296875,-0.7294769287109375,-0.5921783447265625
1731409625259216000,7.0322158203125,0.3030548095703125,-0.7325592041015625,-0.5868072509765625
1731409625269236700,7.04223681640625,0.319793701171875,-0.7249298095703125,-0.585296630859375
1731409625279257900,7.0522578125,0.3239288330078125,-0.7281036376953125,-0.59344482421875
1731409625289278700,7.06227880859375,0.315521240234375,-0.735076904296875,-0.6174163818359375
1731409625299298800,7.072298828125,0.3071441650390625,-0.74530029296875,-0.6456451416015625
1731409625309319700,7.082319580078125,0.3024444580078125,-0.75054931640625,-0.6692047119140625
1731409625319340800,7.0923408203125,0.296142578125,-0.745635986328125,-0.6827545166015625
1731409625329360600,7.102360595703125,0.3173675537109375,-0.7333526611328125,-0.6938018798828125
1731409625339381800,7.1123818359375,0.353271484375,-0.716400146484375,-0.7107391357421875
1731409625349403000,7.12240283203125,0.376617431640625,-0.7036285400390625,-0.7233123779296875
1731409625359424000,7.132424072265625,0.3794097900390625,-0.6828460693359375,-0.7235870361328125
1731409625369443800,7.14244384765625,0.3680419921875,-0.6600494384765625,-0.7140655517578125
1731409625379465000,7.15246484375,0.3543548583984375,-0.640625,-0.6941375732421875
1731409625389485800,7.16248583984375,0.3519744873046875,-0.636749267578125,-0.66937255859375
1731409625399506000,7.172505859375,0.3445587158203125,-0.649505615234375,-0.6499481201171875
1731409625409526800,7.18252685546875,0.340301513671875,-0.66943359375,-0.64520263671875
1731409625419548000,7.1925478515625,0.3397369384765625,-0.7030029296875,-0.666534423828125
1731409625429568800,7.20256884765625,0.347381591796875,-0.736236572265625,-0.699737548828125
1731409625439588900,7.2125888671875,0.3569793701171875,-0.7508392333984375,-0.7317962646484375
1731409625449609700,7.222609619140625,0.3571319580078125,-0.7519073486328125,-0.7634429931640625
1731409625459630800,7.232630859375,0.358734130859375,-0.735382080078125,-0.7762603759765625
1731409625469651700,7.242651611328125,0.35748291015625,-0.7015838623046875,-0.77484130859375
1731409625479671800,7.252671875,0.3529205322265625,-0.6702880859375,-0.7596435546875
1731409625489692700,7.262692626953125,0.34149169921875,-0.6538238525390625,-0.7415618896484375
1731409625499713800,7.2727138671875,0.327392578125,-0.6526641845703125,-0.72509765625
1731409625509735000,7.28273486328125,0.345001220703125,-0.6685943603515625,-0.70623779296875
1731409625519755000,7.292755126953125,0.36346435546875,-0.6868743896484375,-0.7047271728515625
1731409625529775900,7.30277587890625,0.36444091796875,-0.694549560546875,-0.712432861328125
1731409625539796700,7.312796630859375,0.3519287109375,-0.69708251953125,-0.71282958984375
1731409625549816800,7.32281689453125,0.3251495361328125,-0.697021484375,-0.7045135498046875
1731409625559837700,7.332837646484375,0.297454833984375,-0.6902008056640625,-0.6900177001953125
1731409625569858800,7.34285888671875,0.2811737060546875,-0.6878204345703125,-0.685394287109375
1731409625579879700,7.352879638671875,0.28790283203125,-0.6800537109375,-0.6916046142578125
1731409625589899800,7.362899658203125,0.2965850830078125,-0.6676483154296875,-0.698577880859375
1731409625599920600,7.372920654296875,0.28851318359375,-0.6641845703125,-0.7000885009765625
1731409625609941500,7.38294140625,0.2784423828125,-0.6815338134765625,-0.692047119140625
1731409625619962400,7.39296240234375,0.25811767578125,-0.7083282470703125,-0.68890380859375
1731409625629982500,7.402982421875,0.26055908203125,-0.7348785400390625,-0.6788330078125
1731409625640003300,7.41300341796875,0.279541015625,-0.76068115234375,-0.66180419921875
1731409625650024400,7.4230244140625,0.2907562255859375,-0.77880859375,-0.6579437255859375
1731409625660044500,7.43304443359375,0.284576416015625,-0.7895660400390625,-0.6593017578125
1731409625670065400,7.4430654296875,0.272979736328125,-0.7925567626953125,-0.650726318359375
1731409625680086300,7.453086181640625,0.256683349609375,-0.7865447998046875,-0.6301116943359375
1731409625690107400,7.463107421875,0.23834228515625,-0.7792205810546875,-0.60467529296875
1731409625700127500,7.47312744140625,0.22808837890625,-0.776824951171875,-0.5852813720703125
1731409625710148400,7.4831484375,0.221771240234375,-0.7803192138671875,-0.5766143798828125
1731409625720169200,7.493169189453125,0.234130859375,-0.792938232421875,-0.5770263671875
1731409625730190300,7.5031904296875,0.256805419921875,-0.8098602294921875,-0.5835723876953125
1731409625740210200,7.513210205078125,0.27056884765625,-0.823883056640625,-0.5928802490234375
1731409625750231300,7.523231201171875,0.2877960205078125,-0.8305816650390625,-0.5955963134765625
1731409625760252400,7.53325244140625,0.2915802001953125,-0.8315277099609375,-0.58819580078125
1731409625770272500,7.5432724609375,0.2738494873046875,-0.82598876953125,-0.5726165771484375
1731409625780293400,7.55329345703125,0.262939453125,-0.814178466796875,-0.5490875244140625
1731409625790314500,7.563314453125,0.259765625,-0.7983551025390625,-0.5261688232421875
1731409625800335400,7.57333544921875,0.256683349609375,-0.789947509765625,-0.5050506591796875
1731409625810355500,7.58335546875,0.2576446533203125,-0.789459228515625,-0.485382080078125
1731409625820376300,7.593376220703125,0.261810302734375,-0.7977294921875,-0.476593017578125
1731409625830397400,7.6033974609375,0.2558746337890625,-0.7976226806640625,-0.4848480224609375
1731409625840418300,7.613418212890625,0.2573699951171875,-0.7923126220703125,-0.48895263671875
1731409625850438400,7.6234384765625,0.271148681640625,-0.790740966796875,-0.479888916015625
1731409625860459300,7.633459228515625,0.281707763671875,-0.789031982421875,-0.463592529296875
1731409625870480400,7.64348046875,0.279052734375,-0.789215087890625,-0.451995849609375
1731409625880500200,7.653500244140625,0.27081298828125,-0.7948760986328125,-0.44775390625
1731409625890521300,7.663521240234375,0.2623138427734375,-0.80438232421875,-0.4399871826171875
1731409625900542200,7.673542236328125,0.2750396728515625,-0.811920166015625,-0.4298248291015625
1731409625910563600,7.6835634765625,0.28521728515625,-0.8096160888671875,-0.4177703857421875
1731409625920583400,7.69358349609375,0.2951202392578125,-0.7979736328125,-0.4080352783203125
1731409625930604500,7.7036044921875,0.2884674072265625,-0.7845458984375,-0.3982391357421875
1731409625940625400,7.71362548828125,0.26885986328125,-0.7787322998046875,-0.3958740234375
1731409625950646500,7.723646484375,0.27490234375,-0.793670654296875,-0.39373779296875
1731409625960666400,7.733666259765625,0.3023529052734375,-0.8153533935546875,-0.39910888671875
1731409625970687500,7.7436875,0.339599609375,-0.8264312744140625,-0.419219970703125
1731409625980708400,7.753708251953125,0.3590240478515625,-0.8269500732421875,-0.4470367431640625
1731409625990728400,7.763728515625,0.3467864990234375,-0.8250732421875,-0.468505859375
1731409626000749300,7.773749267578125,0.3196258544921875,-0.8224945068359375,-0.4745635986328125
1731409626010770400,7.7837705078125,0.304107666015625,-0.82415771484375,-0.4633941650390625
1731409626020791300,7.793791259765625,0.299560546875,-0.83355712890625,-0.4462127685546875
1731409626030811400,7.803811279296875,0.300445556640625,-0.8459625244140625,-0.4357757568359375
1731409626040832300,7.813832275390625,0.29815673828125,-0.8551788330078125,-0.43524169921875
1731409626050853400,7.823853271484375,0.2987823486328125,-0.85369873046875,-0.44390869140625
1731409626060874500,7.83387451171875,0.3124847412109375,-0.839385986328125,-0.459442138671875
1731409626070894600,7.84389453125,0.3261566162109375,-0.8238067626953125,-0.46612548828125
1731409626080915500,7.85391552734375,0.3413543701171875,-0.8100433349609375,-0.4565277099609375
1731409626090936300,7.863936279296875,0.346771240234375,-0.7999420166015625,-0.44384765625
1731409626100957400,7.87395751953125,0.3333282470703125,-0.7943115234375,-0.4407196044921875
1731409626110977500,7.8839775390625,0.3330230712890625,-0.797760009765625,-0.4461669921875
1731409626120998400,7.893998291015625,0.342041015625,-0.8057708740234375,-0.46063232421875
1731409626131019300,7.904019287109375,0.347412109375,-0.8054351806640625,-0.4801483154296875
1731409626141039400,7.914039306640625,0.3409576416015625,-0.7971038818359375,-0.496337890625
1731409626151060200,7.924060302734375,0.3499603271484375,-0.7879638671875,-0.5078277587890625
1731409626161081300,7.934081298828125,0.3686981201171875,-0.7810211181640625,-0.517364501953125
1731409626171102200,7.944102294921875,0.388153076171875,-0.779449462890625,-0.517913818359375
1731409626181122300,7.954122314453125,0.3844451904296875,-0.7852630615234375,-0.5080108642578125
1731409626191143200,7.96414306640625,0.3577423095703125,-0.7940216064453125,-0.4994659423828125
1731409626201164500,7.97416455078125,0.3488311767578125,-0.8009796142578125,-0.4963531494140625
1731409626211185400,7.984185302734375,0.3590087890625,-0.806610107421875,-0.497711181640625
1731409626221205500,7.99420556640625,0.36859130859375,-0.802734375,-0.506134033203125
1731409626231226400,8.004226318359375,0.371795654296875,-0.789886474609375,-0.506500244140625
1731409626241247500,8.01424755859375,0.3708648681640625,-0.777557373046875,-0.4972686767578125
1731409626251267300,8.024267333984374,0.3659515380859375,-0.76708984375,-0.4967498779296875
1731409626261288400,8.034288330078125,0.3655242919921875,-0.7583770751953125,-0.5074462890625
1731409626271309300,8.044309326171875,0.3629150390625,-0.7552032470703125,-0.5157012939453125
1731409626281330400,8.054330322265624,0.3604583740234375,-0.7611236572265625,-0.5163116455078125
1731409626291350300,8.064350341796874,0.365264892578125,-0.7737579345703125,-0.512176513671875
1731409626301371400,8.074371337890625,0.3654632568359375,-0.77728271484375,-0.513885498046875
1731409626311392300,8.084392333984376,0.365264892578125,-0.77996826171875,-0.5229034423828125
1731409626321413400,8.094413330078124,0.3685302734375,-0.780517578125,-0.5327606201171875
1731409626331433200,8.10443310546875,0.377105712890625,-0.78082275390625,-0.540374755859375
1731409626341454300,8.114454345703125,0.3755340576171875,-0.7816925048828125,-0.5477142333984375
1731409626351475500,8.124475341796876,0.376861572265625,-0.7838897705078125,-0.551177978515625
1731409626361496600,8.13449658203125,0.3831634521484375,-0.789276123046875,-0.54730224609375
1731409626371516400,8.144516357421875,0.383636474609375,-0.7939300537109375,-0.538787841796875
1731409626381537500,8.15453759765625,0.3853302001953125,-0.7907867431640625,-0.5308837890625
1731409626391558400,8.164558349609376,0.394439697265625,-0.7835235595703125,-0.5244598388671875
1731409626401578500,8.17457861328125,0.396148681640625,-0.783447265625,-0.51611328125
1731409626411599400,8.184599365234375,0.39300537109375,-0.7900848388671875,-0.5110015869140625
1731409626421620500,8.194620361328125,0.389312744140625,-0.7977447509765625,-0.513702392578125
1731409626431641300,8.204641357421876,0.386383056640625,-0.8069305419921875,-0.524169921875
1731409626441661400,8.214661376953124,0.379486083984375,-0.81280517578125,-0.5346221923828125
1731409626451682300,8.224682373046875,0.3694305419921875,-0.814117431640625,-0.5379638671875
1731409626461703400,8.234703369140625,0.363983154296875,-0.8096466064453125,-0.5301361083984375
1731409626471724300,8.244724365234376,0.3691864013671875,-0.8067626953125,-0.5094146728515625
1731409626481744400,8.254744384765624,0.3721466064453125,-0.8098297119140625,-0.485931396484375
1731409626491765200,8.26476513671875,0.3676910400390625,-0.811370849609375,-0.47247314453125
1731409626501786400,8.274786376953125,0.3708648681640625,-0.8099517822265625,-0.4764251708984375
1731409626511807500,8.284807373046876,0.3765106201171875,-0.80511474609375,-0.486572265625
1731409626521827600,8.29482763671875,0.378753662109375,-0.8028717041015625,-0.4858856201171875
1731409626531848400,8.304848388671875,0.372314453125,-0.8057403564453125,-0.4778900146484375
1731409626541869300,8.314869384765625,0.3681182861328125,-0.81365966796875,-0.4638214111328125
1731409626551889400,8.324889404296876,0.371002197265625,-0.822998046875,-0.4449462890625
1731409626561910300,8.33491015625,0.3734588623046875,-0.82861328125,-0.4293060302734375
1731409626571931400,8.344931396484375,0.365814208984375,-0.8267974853515625,-0.416107177734375
1731409626581952300,8.3549521484375,0.3673095703125,-0.8203277587890625,-0.40594482421875
1731409626591972400,8.364972412109376,0.383056640625,-0.8141937255859375,-0.400054931640625
1731409626601993200,8.3749931640625,0.3964996337890625,-0.8028717041015625,-0.3932952880859375
1731409626612018700,8.385018798828124,0.393096923828125,-0.8063201904296875,-0.3808441162109375
1731409626622039600,8.39503955078125,0.3924407958984375,-0.8090362548828125,-0.3759002685546875
1731409626632059600,8.4050595703125,0.379302978515625,-0.8074188232421875,-0.37164306640625
1731409626642080500,8.41508056640625,0.3562469482421875,-0.8017425537109375,-0.3686676025390625
1731409626652101600,8.4251015625,0.350982666015625,-0.7945709228515625,-0.363616943359375
1731409626662121500,8.43512158203125,0.364501953125,-0.7860107421875,-0.359100341796875
1731409626672142600,8.445142578125,0.385498046875,-0.7816619873046875,-0.353759765625
1731409626682163500,8.45516357421875,0.3809661865234375,-0.7843170166015625,-0.3514862060546875
1731409626692184600,8.4651845703125,0.3622894287109375,-0.7971954345703125,-0.3574676513671875
1731409626702204400,8.475204345703125,0.35321044921875,-0.8160400390625,-0.3677825927734375
1731409626712225500,8.4852255859375,0.36444091796875,-0.831298828125,-0.381072998046875
1731409626722246700,8.49524658203125,0.38323974609375,-0.84454345703125,-0.398529052734375
1731409626732267500,8.505267578125,0.3990478515625,-0.850311279296875,-0.415924072265625
1731409626742287600,8.51528759765625,0.4075775146484375,-0.8541412353515625,-0.4249725341796875
1731409626752308500,8.52530859375,0.407958984375,-0.856109619140625,-0.422637939453125
1731409626762329600,8.53532958984375,0.4003143310546875,-0.867919921875,-0.40777587890625
1731409626772350500,8.5453505859375,0.3837738037109375,-0.878326416015625,-0.3848114013671875
1731409626782370600,8.55537060546875,0.368988037109375,-0.8756866455078125,-0.370391845703125
1731409626792391400,8.565391357421875,0.3563690185546875,-0.862548828125,-0.366241455078125
1731409626802412500,8.57541259765625,0.3571929931640625,-0.846435546875,-0.372222900390625
1731409626812432600,8.5854326171875,0.3711700439453125,-0.8367767333984375,-0.38134765625
1731409626822453500,8.59545361328125,0.3836517333984375,-0.83465576171875,-0.391998291015625
1731409626832474400,8.605474365234375,0.391265869140625,-0.8434600830078125,-0.39801025390625
1731409626842495500,8.61549560546875,0.396148681640625,-0.85687255859375,-0.4063568115234375
1731409626852515600,8.625515625,0.40423583984375,-0.8731842041015625,-0.409088134765625
1731409626862536400,8.635536376953125,0.41754150390625,-0.884185791015625,-0.4001617431640625
1731409626872557600,8.6455576171875,0.4089202880859375,-0.8834075927734375,-0.3888397216796875
1731409626882578700,8.65557861328125,0.3927154541015625,-0.87725830078125,-0.38043212890625
1731409626892598500,8.6655986328125,0.3809356689453125,-0.867584228515625,-0.3708953857421875
1731409626902619600,8.67561962890625,0.379150390625,-0.8514251708984375,-0.366119384765625
1731409626912640500,8.685640625,0.383758544921875,-0.833648681640625,-0.364013671875
1731409626922660600,8.69566064453125,0.396453857421875,-0.8220062255859375,-0.3564300537109375
1731409626932681500,8.705681396484374,0.4000396728515625,-0.81524658203125,-0.34832763671875
1731409626942702600,8.71570263671875,0.3881683349609375,-0.8096923828125,-0.347076416015625
1731409626952723500,8.725723388671875,0.3814239501953125,-0.811187744140625,-0.3431396484375
1731409626962743600,8.73574365234375,0.3771514892578125,-0.8145599365234375,-0.331878662109375
1731409626972764400,8.745764404296875,0.3749237060546875,-0.816650390625,-0.321258544921875
1731409626982785500,8.75578564453125,0.3750457763671875,-0.8172760009765625,-0.316619873046875
1731409626992806400,8.765806396484376,0.3780975341796875,-0.8191680908203125,-0.321685791015625
1731409627002826500,8.775826416015626,0.3860321044921875,-0.820953369140625,-0.338897705078125
1731409627012847400,8.785847412109375,0.395263671875,-0.8226165771484375,-0.3546905517578125
1731409627022868700,8.79586865234375,0.4025115966796875,-0.83062744140625,-0.3633575439453125
1731409627032889600,8.8058896484375,0.4042205810546875,-0.8408050537109375,-0.3614654541015625
1731409627042909700,8.81590966796875,0.399627685546875,-0.8449859619140625,-0.3517913818359375
1731409627052930600,8.8259306640625,0.390655517578125,-0.8499603271484375,-0.3454742431640625
1731409627062951700,8.83595166015625,0.3908843994140625,-0.8521728515625,-0.342193603515625
1731409627072971500,8.845971435546875,0.396636962890625,-0.856475830078125,-0.3431854248046875
1731409627082992600,8.85599267578125,0.4002685546875,-0.8641510009765625,-0.34832763671875
1731409627093013500,8.866013427734375,0.3946380615234375,-0.8679962158203125,-0.3565826416015625
1731409627103034600,8.87603466796875,0.3905792236328125,-0.87335205078125,-0.361297607421875
1731409627113054500,8.886054443359376,0.3792724609375,-0.8744964599609375,-0.3652801513671875
1731409627123075600,8.89607568359375,0.3668670654296875,-0.8725738525390625,-0.3673095703125
1731409627133096400,8.906096435546875,0.3716278076171875,-0.8646392822265625,-0.3623504638671875
1731409627143117300,8.916117431640625,0.3828582763671875,-0.8543701171875,-0.352569580078125
1731409627153137400,8.926137451171876,0.3847198486328125,-0.8433837890625,-0.3443756103515625
1731409627163158500,8.936158447265624,0.38250732421875,-0.8382568359375,-0.3412322998046875
1731409627173179600,8.9461796875,0.397552490234375,-0.8462371826171875,-0.338653564453125
1731409627183200500,8.956200439453125,0.40399169921875,-0.8518524169921875,-0.339508056640625
1731409627193220600,8.966220703125,0.38177490234375,-0.8566741943359375,-0.3477783203125
1731409627203241500,8.976241455078124,0.36859130859375,-0.86065673828125,-0.35089111328125
1731409627213262600,8.9862626953125,0.3682098388671875,-0.855072021484375,-0.348358154296875
1731409627223282700,8.99628271484375,0.3768310546875,-0.8393707275390625,-0.345367431640625
1731409627233303600,9.006303466796876,0.3770599365234375,-0.8184814453125,-0.33746337890625
1731409627243324400,9.016324462890625,0.3537750244140625,-0.8032989501953125,-0.3341064453125
1731409627253345500,9.026345458984375,0.34814453125,-0.8113250732421875,-0.333953857421875
1731409627263365600,9.03636572265625,0.3809967041015625,-0.8354339599609375,-0.3416595458984375
1731409627273386500,9.046386474609376,0.4242401123046875,-0.850128173828125,-0.361328125
1731409627283407400,9.056407470703125,0.4387664794921875,-0.869384765625,-0.381317138671875
1731409627293428700,9.0664287109375,0.4403228759765625,-0.8779144287109375,-0.39996337890625
1731409627303448300,9.0764482421875,0.4115142822265625,-0.8756866455078125,-0.4027557373046875
1731409627313469700,9.0864697265625,0.3818359375,-0.86846923828125,-0.4008941650390625
1731409627323490600,9.096490478515625,0.384521484375,-0.860137939453125,-0.3935546875
1731409627333511700,9.10651171875,0.4091644287109375,-0.8544464111328125,-0.3791046142578125
1731409627343531500,9.116531494140625,0.407470703125,-0.853668212890625,-0.3709564208984375
1731409627353552600,9.126552734375,0.386962890625,-0.8567047119140625,-0.3727569580078125
1731409627363573500,9.136573486328125,0.3808746337890625,-0.85699462890625,-0.383544921875
1731409627373593600,9.146593505859375,0.3743133544921875,-0.8532257080078125,-0.392364501953125
1731409627383614500,9.156614501953126,0.37213134765625,-0.8521575927734375,-0.405242919921875
1731409627393635600,9.166635498046874,0.379791259765625,-0.855682373046875,-0.4048004150390625
1731409627403656400,9.176656494140625,0.3861846923828125,-0.862335205078125,-0.4007568359375
1731409627413676500,9.186676513671875,0.38739013671875,-0.863433837890625,-0.3955535888671875
1731409627423697400,9.196697509765626,0.385467529296875,-0.8679046630859375,-0.3820953369140625
1731409627433718500,9.206718505859374,0.3910064697265625,-0.87054443359375,-0.3675079345703125
1731409627443739600,9.21673974609375,0.3897552490234375,-0.8673095703125,-0.3619384765625
1731409627453759500,9.226759521484375,0.3851318359375,-0.864013671875,-0.365875244140625
1731409627463780600,9.236780517578126,0.383636474609375,-0.8610992431640625,-0.3709716796875
1731409627473801700,9.2468017578125,0.38494873046875,-0.8592529296875,-0.368499755859375
1731409627483822600,9.256822509765625,0.39215087890625,-0.867767333984375,-0.3543548583984375
1731409627493842700,9.2668427734375,0.400848388671875,-0.877044677734375,-0.3441314697265625
1731409627503863600,9.276863525390626,0.39788818359375,-0.8804779052734375,-0.3386993408203125
1731409627513884700,9.286884765625,0.3975372314453125,-0.882568359375,-0.33868408203125
1731409627523904500,9.296904541015625,0.4158172607421875,-0.8771820068359375,-0.3442535400390625
1731409627533925600,9.306925537109375,0.4259796142578125,-0.863983154296875,-0.3513641357421875
1731409627543946500,9.316946533203126,0.426300048828125,-0.8480987548828125,-0.358612060546875
1731409627553967400,9.32696728515625,0.4214019775390625,-0.841094970703125,-0.356597900390625
1731409627563987500,9.336987548828125,0.4071044921875,-0.83319091796875,-0.346771240234375
1731409627574008600,9.347008544921875,0.38348388671875,-0.8234100341796875,-0.331939697265625
1731409627584029400,9.357029541015624,0.3631134033203125,-0.8150787353515625,-0.31512451171875
1731409627594050600,9.367050537109375,0.3572235107421875,-0.8077239990234375,-0.2980804443359375
1731409627604070400,9.3770703125,0.359161376953125,-0.80108642578125,-0.2853851318359375
1731409627614091500,9.387091552734375,0.3590087890625,-0.79644775390625,-0.28436279296875
1731409627624112400,9.3971123046875,0.3751678466796875,-0.8033905029296875,-0.2939605712890625
1731409627634133200,9.40713330078125,0.4101409912109375,-0.8220977783203125,-0.3095855712890625
1731409627644153300,9.4171533203125,0.4413299560546875,-0.842498779296875,-0.3255462646484375
1731409627654174200,9.42717431640625,0.455108642578125,-0.8537750244140625,-0.3420867919921875
1731409627664195300,9.4371953125,0.451995849609375,-0.8603515625,-0.3575897216796875
1731409627674215400,9.44721533203125,0.443145751953125,-0.866790771484375,-0.35577392578125
1731409627684236300,9.457236328125,0.4359588623046875,-0.865997314453125,-0.33917236328125
1731409627694257200,9.467257080078125,0.43218994140625,-0.8583221435546875,-0.31964111328125
1731409627704278500,9.477278564453124,0.4202880859375,-0.8471221923828125,-0.3110198974609375
1731409627714298400,9.48729833984375,0.415771484375,-0.83221435546875,-0.3084716796875
1731409627724319500,9.497319580078125,0.4104766845703125,-0.823577880859375,-0.3133697509765625
1731409627734340400,9.50734033203125,0.4019012451171875,-0.8227081298828125,-0.329681396484375
1731409627744361500,9.517361572265624,0.4005584716796875,-0.8318634033203125,-0.34991455078125
1731409627754381300,9.52738134765625,0.407989501953125,-0.8419952392578125,-0.364501953125
1731409627764402400,9.53740234375,0.4157257080078125,-0.8508758544921875,-0.372528076171875
1731409627774423300,9.54742333984375,0.4202117919921875,-0.8561248779296875,-0.372528076171875
1731409627784444400,9.5574443359375,0.42059326171875,-0.8601226806640625,-0.361724853515625
1731409627794464300,9.56746435546875,0.4214324951171875,-0.8582000732421875,-0.3524169921875
1731409627804485400,9.5774853515625,0.421234130859375,-0.8516693115234375,-0.3429107666015625
1731409627814506200,9.58750634765625,0.413909912109375,-0.8502197265625,-0.3343658447265625
1731409627824526300,9.5975263671875,0.41021728515625,-0.8576812744140625,-0.3269195556640625
1731409627834547200,9.607547119140625,0.4174957275390625,-0.8702850341796875,-0.3281402587890625
1731409627844568600,9.617568603515625,0.4267120361328125,-0.8816375732421875,-0.326385498046875
1731409627854589400,9.62758935546875,0.4200286865234375,-0.8866424560546875,-0.3205108642578125
1731409627864609500,9.637609619140624,0.395782470703125,-0.8838958740234375,-0.3142547607421875
1731409627874630400,9.64763037109375,0.4033660888671875,-0.8819122314453125,-0.3082275390625
1731409627884651500,9.657651611328125,0.4176788330078125,-0.8706207275390625,-0.3160247802734375
1731409627894672400,9.66767236328125,0.4307403564453125,-0.8549346923828125,-0.3270416259765625
1731409627904692500,9.6776923828125,0.4252471923828125,-0.8527374267578125,-0.3324432373046875
1731409627914713300,9.68771337890625,0.4112091064453125,-0.848175048828125,-0.3325042724609375
1731409627924734500,9.697734375,0.368011474609375,-0.8441314697265625,-0.3262176513671875
1731409627934755300,9.70775537109375,0.3611907958984375,-0.84716796875,-0.3154449462890625
1731409627944775400,9.717775390625,0.3739013671875,-0.843414306640625,-0.3088226318359375
1731409627954796300,9.72779638671875,0.39178466796875,-0.8304290771484375,-0.309295654296875
1731409627964817400,9.7378173828125,0.3899688720703125,-0.813995361328125,-0.3037109375
1731409627974837200,9.747837158203126,0.3727264404296875,-0.8092041015625,-0.2947998046875
1731409627984858400,9.7578583984375,0.3806610107421875,-0.8167572021484375,-0.2916107177734375
1731409627994879500,9.76787939453125,0.40777587890625,-0.8300933837890625,-0.30169677734375
1731409628004900400,9.777900390625,0.4404144287109375,-0.8445892333984375,-0.3132171630859375
1731409628014920400,9.78792041015625,0.4562835693359375,-0.850860595703125,-0.327117919921875
1731409628024941600,9.797941650390625,0.451873779296875,-0.854400634765625,-0.3397979736328125
1731409628034962400,9.80796240234375,0.442840576171875,-0.8589019775390625,-0.3463134765625
1731409628044983300,9.8179833984375,0.441802978515625,-0.85723876953125,-0.3475341796875
1731409628055003400,9.82800341796875,0.4365081787109375,-0.8555908203125,-0.3409881591796875
1731409628065024300,9.838024169921875,0.429107666015625,-0.85333251953125,-0.333099365234375
1731409628075045400,9.84804541015625,0.423797607421875,-0.851470947265625,-0.33062744140625
1731409628085066200,9.858066162109376,0.422454833984375,-0.849273681640625,-0.3327789306640625
1731409628095086300,9.86808642578125,0.4176483154296875,-0.8427276611328125,-0.341461181640625
1731409628105107200,9.878107177734375,0.4136962890625,-0.8370208740234375,-0.35345458984375
1731409628115128300,9.88812841796875,0.410369873046875,-0.8331451416015625,-0.3629302978515625
1731409628125148400,9.8981484375,0.40966796875,-0.8360137939453125,-0.367889404296875
1731409628135169300,9.908169189453124,0.42169189453125,-0.842620849609375,-0.3604583740234375
1731409628145190400,9.9181904296875,0.4252471923828125,-0.8416900634765625,-0.3588104248046875
1731409628155211500,9.92821142578125,0.418304443359375,-0.83709716796875,-0.359344482421875
1731409628165231400,9.9382314453125,0.4139251708984375,-0.8430023193359375,-0.344635009765625
1731409628175252500,9.94825244140625,0.4022369384765625,-0.847442626953125,-0.3309478759765625
1731409628185273300,9.9582734375,0.4068756103515625,-0.84808349609375,-0.32366943359375
1731409628195294500,9.96829443359375,0.41473388671875,-0.846405029296875,-0.3173370361328125
1731409628205314300,9.978314208984376,0.425537109375,-0.84576416015625,-0.318023681640625
1731409628215335400,9.98833544921875,0.433624267578125,-0.8479156494140625,-0.32421875
1731409628225356300,9.998356201171875,0.4356842041015625,-0.8504180908203125,-0.3280181884765625
1731409628235377400,10.00837744140625,0.4319000244140625,-0.8518829345703125,-0.3325958251953125
1731409628245397200,10.018397216796876,0.420379638671875,-0.84686279296875,-0.338134765625
1731409628255418400,10.02841845703125,0.41119384765625,-0.841552734375,-0.3392333984375
1731409628265439200,10.038439208984375,0.40826416015625,-0.8383941650390625,-0.340057373046875
1731409628275459300,10.048459228515625,0.409515380859375,-0.834442138671875,-0.3446807861328125
1731409628285480200,10.058480224609376,0.4111785888671875,-0.8350982666015625,-0.3408050537109375
1731409628295501600,10.06850146484375,0.413818359375,-0.8387451171875,-0.332550048828125
1731409628305522400,10.0785224609375,0.4151153564453125,-0.8440704345703125,-0.3286590576171875
1731409628315542500,10.08854248046875,0.421905517578125,-0.846343994140625,-0.3325347900390625
1731409628325563400,10.0985634765625,0.4351043701171875,-0.846771240234375,-0.339111328125
1731409628335584500,10.10858447265625,0.4425811767578125,-0.8423919677734375,-0.34661865234375
1731409628345605400,10.11860546875,0.444488525390625,-0.834716796875,-0.3492431640625
1731409628355625500,10.12862548828125,0.43499755859375,-0.8307037353515625,-0.34381103515625
1731409628365646300,10.138646240234374,0.421905517578125,-0.827728271484375,-0.3393707275390625
1731409628375667500,10.14866748046875,0.4210662841796875,-0.83270263671875,-0.3370513916015625
1731409628385687300,10.158687255859375,0.4257659912109375,-0.836212158203125,-0.33697509765625
1731409628395708400,10.16870849609375,0.4254302978515625,-0.8394927978515625,-0.337493896484375
1731409628405729300,10.178729248046874,0.42437744140625,-0.8392486572265625,-0.3446044921875
1731409628415750100,10.188750244140625,0.4201812744140625,-0.8355255126953125,-0.3502197265625
1731409628425770200,10.198770263671875,0.4178314208984375,-0.831939697265625,-0.354156494140625
1731409628435791600,10.20879150390625,0.414276123046875,-0.83258056640625,-0.357208251953125
1731409628445812500,10.2188125,0.39617919921875,-0.8336029052734375,-0.356781005859375
1731409628455833300,10.228833251953125,0.3983917236328125,-0.8397064208984375,-0.347564697265625
1731409628465853400,10.238853515625,0.417388916015625,-0.8440093994140625,-0.339996337890625
1731409628475874300,10.248874267578126,0.4403228759765625,-0.8470001220703125,-0.335205078125
1731409628485895400,10.2588955078125,0.438629150390625,-0.8496856689453125,-0.3326416015625
1731409628495916300,10.268916259765625,0.410858154296875,-0.8468475341796875,-0.3304290771484375
1731409628505936400,10.278936279296875,0.3812408447265625,-0.85113525390625,-0.3300628662109375
1731409628515957200,10.288957275390626,0.3959808349609375,-0.8549652099609375,-0.3289794921875
1731409628525978400,10.298978271484375,0.423492431640625,-0.8538818359375,-0.331634521484375
1731409628535998500,10.30899853515625,0.44696044921875,-0.8558197021484375,-0.340545654296875
1731409628546019300,10.319019287109375,0.4450836181640625,-0.8615570068359375,-0.3497314453125
1731409628556040200,10.329040283203126,0.4339447021484375,-0.87139892578125,-0.3472900390625
1731409628566061300,10.339061279296875,0.422454833984375,-0.8795928955078125,-0.3396453857421875
1731409628576081200,10.3490810546875,0.41094970703125,-0.884246826171875,-0.33660888671875
1731409628586102500,10.3591025390625,0.4148406982421875,-0.881744384765625,-0.3386993408203125
1731409628596123400,10.369123291015624,0.4213104248046875,-0.8765106201171875,-0.3365936279296875
1731409628606141400,10.379141357421876,0.426971435546875,-0.8701324462890625,-0.3306427001953125
1731409628616161300,10.389161376953124,0.4328460693359375,-0.8686981201171875,-0.3253173828125
1731409628626182400,10.399182373046875,0.42926025390625,-0.8643951416015625,-0.3215179443359375
1731409628636203300,10.409203369140625,0.4219970703125,-0.8563995361328125,-0.32086181640625
1731409628646224400,10.419224365234374,0.416107177734375,-0.85052490234375,-0.3224029541015625
1731409628656244200,10.429244140625,0.411651611328125,-0.8489227294921875,-0.3184967041015625
1731409628666265300,10.439265380859375,0.414764404296875,-0.851531982421875,-0.308685302734375
1731409628676286200,10.4492861328125,0.4175262451171875,-0.8532257080078125,-0.2965545654296875
1731409628686306300,10.459306396484376,0.415313720703125,-0.850128173828125,-0.292266845703125
1731409628696327200,10.4693271484375,0.4178009033203125,-0.84375,-0.29583740234375
1731409628706348300,10.479348388671875,0.431365966796875,-0.83367919921875,-0.3001708984375
1731409628716369200,10.489369140625,0.4391326904296875,-0.8256378173828125,-0.3101806640625
1731409628726389200,10.49938916015625,0.442169189453125,-0.8233489990234375,-0.3155364990234375
1731409628736410000,10.50941015625,0.434234619140625,-0.8324432373046875,-0.315399169921875
1731409628746431200,10.51943115234375,0.41705322265625,-0.839752197265625,-0.313140869140625
1731409628756452400,10.529452392578126,0.413482666015625,-0.8438262939453125,-0.3082427978515625
1731409628766472400,10.539472412109374,0.415863037109375,-0.8443756103515625,-0.2991943359375
1731409628776493300,10.549493408203125,0.415618896484375,-0.845245361328125,-0.2859954833984375
1731409628786514200,10.55951416015625,0.4152374267578125,-0.8463897705078125,-0.2741851806640625
1731409628796535300,10.569535400390626,0.41351318359375,-0.8456268310546875,-0.271270751953125
1731409628806555400,10.579555419921874,0.404327392578125,-0.8477783203125,-0.2705841064453125
1731409628816576300,10.589576171875,0.408233642578125,-0.8522491455078125,-0.275360107421875
1731409628826597000,10.59959716796875,0.41717529296875,-0.8538055419921875,-0.2841339111328125
1731409628836617200,10.6096171875,0.4213104248046875,-0.853759765625,-0.2949981689453125
1731409628846638000,10.61963818359375,0.4234619140625,-0.853363037109375,-0.29931640625
1731409628856659200,10.6296591796875,0.4266204833984375,-0.8531341552734375,-0.299224853515625
1731409628866680000,10.63968017578125,0.4274749755859375,-0.853851318359375,-0.2899932861328125
1731409628876700200,10.6497001953125,0.4292144775390625,-0.8604888916015625,-0.2778778076171875
1731409628886721000,10.659720947265624,0.428802490234375,-0.865631103515625,-0.2717742919921875
1731409628896742400,10.669742431640625,0.4300689697265625,-0.8678436279296875,-0.2710113525390625
1731409628906763300,10.67976318359375,0.430145263671875,-0.8679656982421875,-0.27215576171875
1731409628916783400,10.689783447265626,0.4331512451171875,-0.86572265625,-0.2733154296875
1731409628926804200,10.69980419921875,0.428131103515625,-0.8609466552734375,-0.2756500244140625
1731409628936825300,10.709825439453125,0.4229583740234375,-0.8554229736328125,-0.2828369140625
1731409628946846200,10.71984619140625,0.4206695556640625,-0.8516998291015625,-0.285308837890625
1731409628956866300,10.7298662109375,0.42181396484375,-0.8496246337890625,-0.2827911376953125
1731409628966887200,10.73988720703125,0.42254638671875,-0.851531982421875,-0.281585693359375
1731409628976908300,10.749908203125,0.424713134765625,-0.858673095703125,-0.27777099609375
1731409628986928000,10.75992822265625,0.4253387451171875,-0.8673553466796875,-0.271026611328125
1731409628996949200,10.76994921875,0.4250640869140625,-0.87176513671875,-0.272552490234375
1731409629006970000,10.77997021484375,0.4301910400390625,-0.87353515625,-0.282135009765625
1731409629016991200,10.7899912109375,0.43499755859375,-0.868072509765625,-0.2959136962890625
1731409629027011000,10.800010986328125,0.428924560546875,-0.8571014404296875,-0.3116912841796875
1731409629037032400,10.810032470703124,0.39923095703125,-0.847015380859375,-0.3209991455078125
1731409629047053300,10.82005322265625,0.3914337158203125,-0.845672607421875,-0.31451416015625
1731409629057074400,10.830074462890625,0.40203857421875,-0.8519134521484375,-0.2955474853515625
1731409629067094300,10.84009423828125,0.435394287109375,-0.8505859375,-0.2821807861328125
1731409629077115400,10.850115478515624,0.42962646484375,-0.860992431640625,-0.27838134765625
1731409629087136300,10.86013623046875,0.4162445068359375,-0.8647003173828125,-0.29010009765625
1731409629097156400,10.87015625,0.3915863037109375,-0.8706512451171875,-0.29656982421875
1731409629107177200,10.88017724609375,0.39117431640625,-0.877166748046875,-0.2997894287109375
1731409629117198300,10.8901982421875,0.4136199951171875,-0.8771514892578125,-0.3002777099609375
1731409629127219200,10.90021923828125,0.4296722412109375,-0.8743896484375,-0.30059814453125
1731409629137239300,10.9102392578125,0.4281768798828125,-0.877838134765625,-0.2961273193359375
1731409629147260200,10.92026025390625,0.412261962890625,-0.883544921875,-0.293243408203125
1731409629157281300,10.93028125,0.394287109375,-0.8870697021484375,-0.29376220703125
1731409629167302100,10.94030224609375,0.3847198486328125,-0.889801025390625,-0.291839599609375
1731409629177322200,10.950322265625,0.3874969482421875,-0.8853759765625,-0.2865142822265625
1731409629187343400,10.96034326171875,0.389984130859375,-0.8754730224609375,-0.284332275390625
1731409629197364200,10.9703642578125,0.38897705078125,-0.86724853515625,-0.2832489013671875
1731409629207384300,10.98038427734375,0.3802490234375,-0.8599090576171875,-0.274749755859375
1731409629217405400,10.990405517578125,0.379852294921875,-0.85418701171875,-0.27044677734375
1731409629227426300,11.00042626953125,0.38385009765625,-0.847564697265625,-0.2748260498046875
1731409629237447200,11.010447265625,0.3853302001953125,-0.8449554443359375,-0.286041259765625
1731409629247467300,11.02046728515625,0.3906097412109375,-0.847259521484375,-0.2955780029296875
1731409629257488100,11.030488037109375,0.3984375,-0.8500823974609375,-0.2997283935546875
1731409629267509200,11.04050927734375,0.406036376953125,-0.855712890625,-0.302764892578125
1731409629277530000,11.050530029296874,0.4115447998046875,-0.8653411865234375,-0.3041534423828125
1731409629287550200,11.06055029296875,0.4145660400390625,-0.873504638671875,-0.3053436279296875
1731409629297571000,11.070571044921875,0.41259765625,-0.877716064453125,-0.308624267578125
1731409629307592200,11.08059228515625,0.4157867431640625,-0.87957763671875,-0.3121490478515625
1731409629317613300,11.09061328125,0.4086761474609375,-0.875244140625,-0.313995361328125
1731409629327633200,11.100633056640625,0.3970794677734375,-0.8685150146484375,-0.3118133544921875
1731409629337654300,11.110654296875,0.3878631591796875,-0.8681640625,-0.3074951171875
1731409629347675400,11.12067529296875,0.380340576171875,-0.867706298828125,-0.310028076171875
1731409629357695200,11.1306953125,0.3868865966796875,-0.8677520751953125,-0.315399169921875
1731409629367716400,11.14071630859375,0.3967437744140625,-0.8746337890625,-0.3162994384765625
1731409629377737200,11.1507373046875,0.4034576416015625,-0.8839569091796875,-0.318878173828125
1731409629387758300,11.16075830078125,0.4030303955078125,-0.8895416259765625,-0.32269287109375
1731409629397778200,11.170778076171874,0.4004669189453125,-0.889617919921875,-0.32879638671875
1731409629407799300,11.18079931640625,0.398651123046875,-0.8897247314453125,-0.331329345703125
1731409629417820200,11.190820068359375,0.3986968994140625,-0.8880767822265625,-0.3279266357421875
1731409629427841300,11.20084130859375,0.3984527587890625,-0.88507080078125,-0.322509765625
1731409629437861000,11.210861083984375,0.3941802978515625,-0.879974365234375,-0.318695068359375
1731409629447882200,11.22088232421875,0.3941802978515625,-0.879302978515625,-0.3168487548828125
1731409629457903000,11.230903076171876,0.393341064453125,-0.8760833740234375,-0.309112548828125
1731409629467923200,11.240923095703126,0.3846588134765625,-0.86956787109375,-0.302001953125
1731409629477944000,11.250944091796875,0.3772735595703125,-0.86480712890625,-0.2979278564453125
1731409629487965400,11.26096533203125,0.379486083984375,-0.8601837158203125,-0.2975921630859375
1731409629497986300,11.270986328125,0.381256103515625,-0.8538055419921875,-0.298126220703125
1731409629508006400,11.28100634765625,0.389495849609375,-0.8496856689453125,-0.300079345703125
1731409629518027300,11.29102734375,0.40203857421875,-0.8472747802734375,-0.3069305419921875
1731409629528048400,11.30104833984375,0.408355712890625,-0.843475341796875,-0.3150634765625
1731409629538069200,11.3110693359375,0.4088592529296875,-0.844696044921875,-0.3177947998046875
1731409629548089300,11.32108935546875,0.4018707275390625,-0.8463134765625,-0.314178466796875
1731409629558110200,11.331110107421875,0.39605712890625,-0.8463134765625,-0.30963134765625
1731409629568131300,11.34113134765625,0.4029388427734375,-0.8416290283203125,-0.305633544921875
1731409629578151200,11.351151123046876,0.40521240234375,-0.8305511474609375,-0.30352783203125
1731409629588172300,11.36117236328125,0.39678955078125,-0.8168792724609375,-0.3062591552734375
1731409629598193200,11.371193115234375,0.3832244873046875,-0.797821044921875,-0.3120269775390625
1731409629608213000,11.381212890625,0.3648681640625,-0.7846221923828125,-0.3150634765625
1731409629618233000,11.391233154296875,0.359100341796875,-0.7889404296875,-0.308197021484375
1731409629628254000,11.40125390625,0.3688201904296875,-0.8175811767578125,-0.3013763427734375
1731409629638274800,11.41127490234375,0.3891448974609375,-0.8612823486328125,-0.3080596923828125
1731409629648296000,11.4212958984375,0.4184112548828125,-0.899658203125,-0.3267059326171875
1731409629658315800,11.431315673828125,0.4568023681640625,-0.92559814453125,-0.353912353515625
1731409629668337000,11.4413369140625,0.4741973876953125,-0.9335479736328125,-0.3736114501953125
1731409629678357800,11.451357666015625,0.4819183349609375,-0.9300537109375,-0.3760528564453125
1731409629688379000,11.46137890625,0.4435577392578125,-0.925079345703125,-0.3624267578125
1731409629698398700,11.471398681640625,0.4046478271484375,-0.9207763671875,-0.343841552734375
1731409629708419800,11.481419921875,0.3648834228515625,-0.9176025390625,-0.3187408447265625
1731409629718441000,11.49144091796875,0.3468170166015625,-0.9171142578125,-0.293701171875
1731409629728461000,11.5014609375,0.35772705078125,-0.9145355224609375,-0.27337646484375
1731409629738482000,11.51148193359375,0.3844451904296875,-0.89910888671875,-0.279022216796875
1731409629748503000,11.5215029296875,0.4024658203125,-0.8793182373046875,-0.3090362548828125
1731409629758524000,11.53152392578125,0.40423583984375,-0.8659820556640625,-0.342987060546875
1731409629768544000,11.5415439453125,0.4010009765625,-0.8580780029296875,-0.368438720703125
1731409629778564900,11.55156494140625,0.40045166015625,-0.852508544921875,-0.38287353515625
1731409629788586000,11.5615859375,0.397430419921875,-0.851806640625,-0.380950927734375
1731409629798606800,11.57160693359375,0.3904571533203125,-0.853118896484375,-0.3596038818359375
1731409629808627000,11.581626953125,0.3854827880859375,-0.852783203125,-0.334747314453125
1731409629818647800,11.591647705078126,0.3787994384765625,-0.8513946533203125,-0.31341552734375
1731409629828669000,11.6016689453125,0.3800811767578125,-0.847137451171875,-0.30023193359375
1731409629838688800,11.611688720703125,0.3887481689453125,-0.840972900390625,-0.300079345703125
1731409629848710000,11.6217099609375,0.3958740234375,-0.8337554931640625,-0.3143768310546875
1731409629858731000,11.63173095703125,0.402618408203125,-0.8256683349609375,-0.332794189453125
1731409629868752100,11.641752197265625,0.4100799560546875,-0.822540283203125,-0.3386993408203125
1731409629878772000,11.65177197265625,0.4112701416015625,-0.8242950439453125,-0.335601806640625
1731409629888793000,11.66179296875,0.406036376953125,-0.8283843994140625,-0.326934814453125
1731409629898814000,11.67181396484375,0.3953094482421875,-0.8383331298828125,-0.320831298828125
1731409629908834800,11.681834716796875,0.4021148681640625,-0.851837158203125,-0.3170623779296875
1731409629918855000,11.69185498046875,0.4107818603515625,-0.86279296875,-0.3188629150390625
1731409629928876000,11.7018759765625,0.4112396240234375,-0.8621368408203125,-0.3313140869140625
1731409629938897000,11.71189697265625,0.408050537109375,-0.8647613525390625,-0.339508056640625
1731409629948917000,11.7219169921875,0.401153564453125,-0.864410400390625,-0.3421478271484375
1731409629958937900,11.731937744140625,0.402801513671875,-0.8627166748046875,-0.338836669921875
1731409629968959000,11.741958984375,0.4142303466796875,-0.870513916015625,-0.3290557861328125
1731409629978979800,11.751979736328124,0.4160614013671875,-0.880645751953125,-0.3133392333984375
1731409629989000000,11.762,0.4137420654296875,-0.8859710693359375,-0.3059844970703125
1731409629999020800,11.772020751953125,0.404998779296875,-0.8872528076171875,-0.3094482421875
1731409630009042000,11.7820419921875,0.407196044921875,-0.8851776123046875,-0.3192596435546875
1731409630019063000,11.79206298828125,0.41448974609375,-0.8800811767578125,-0.330810546875
1731409630029083100,11.802083251953125,0.41790771484375,-0.8740234375,-0.3399658203125
1731409630039104000,11.81210400390625,0.4138031005859375,-0.8726043701171875,-0.3404998779296875
1731409630049124900,11.822124755859376,0.409088134765625,-0.8738250732421875,-0.330474853515625
1731409630059145000,11.83214501953125,0.4019317626953125,-0.8740692138671875,-0.31475830078125
1731409630069165800,11.842165771484375,0.393829345703125,-0.871551513671875,-0.2991790771484375
1731409630079187000,11.85218701171875,0.39312744140625,-0.8643035888671875,-0.2904510498046875
1731409630089207800,11.862207763671876,0.3935546875,-0.8473358154296875,-0.2937774658203125
1731409630099228000,11.872227783203124,0.3938751220703125,-0.8316650390625,-0.3007659912109375
1731409630109248800,11.882248779296875,0.39068603515625,-0.81903076171875,-0.3067626953125
1731409630119270000,11.892269775390625,0.38665771484375,-0.8084564208984375,-0.3082122802734375
1731409630129290800,11.902290771484376,0.3749237060546875,-0.80364990234375,-0.3011627197265625
1731409630139310800,11.912310791015624,0.3621673583984375,-0.802001953125,-0.286712646484375
1731409630149331700,11.922331787109375,0.3506011962890625,-0.8069000244140625,-0.2775421142578125
1731409630159353000,11.93235302734375,0.3568115234375,-0.8309478759765625,-0.27215576171875
1731409630169372700,11.94237255859375,0.3947906494140625,-0.8598480224609375,-0.286163330078125
1731409630179394000,11.95239404296875,0.44281005859375,-0.8763427734375,-0.31549072265625
1731409630189415000,11.962414794921875,0.4693450927734375,-0.882568359375,-0.343292236328125
1731409630199436000,11.97243603515625,0.4729156494140625,-0.889495849609375,-0.352630615234375
1731409630209455900,11.982455810546876,0.458404541015625,-0.898681640625,-0.34619140625
1731409630219477000,11.99247705078125,0.4357757568359375,-0.9025421142578125,-0.329742431640625
1731409630229497900,12.002497802734375,0.4183502197265625,-0.9003753662109375,-0.3058929443359375
1731409630239519000,12.01251904296875,0.3980712890625,-0.8954010009765625,-0.287750244140625
1731409630249538800,12.022538818359376,0.3845672607421875,-0.8883056640625,-0.281585693359375
1731409630259560000,12.032559814453125,0.382965087890625,-0.875518798828125,-0.2888031005859375
1731409630269580800,12.042580810546875,0.384796142578125,-0.86199951171875,-0.3105621337890625
1731409630279602000,12.052601806640626,0.3962860107421875,-0.855438232421875,-0.336151123046875
1731409630289621800,12.062621826171876,0.4003448486328125,-0.8524932861328125,-0.3507843017578125
1731409630299643000,12.072642822265625,0.4173583984375,-0.85577392578125,-0.3476104736328125
1731409630309664000,12.0826640625,0.430694580078125,-0.8585205078125,-0.3364410400390625
1731409630319684000,12.09268408203125,0.432891845703125,-0.847259521484375,-0.3274078369140625
1731409630329705000,12.102705078125,0.426666259765625,-0.85137939453125,-0.318267822265625
1731409630339726000,12.11272607421875,0.415435791015625,-0.8519744873046875,-0.313812255859375
1731409630349747000,12.122746826171875,0.3919525146484375,-0.84649658203125,-0.312042236328125
1731409630359767000,12.13276708984375,0.3915252685546875,-0.8426513671875,-0.3143157958984375
1731409630369788000,12.142787841796874,0.408416748046875,-0.8372955322265625,-0.314605712890625
1731409630379809000,12.15280908203125,0.42962646484375,-0.8340606689453125,-0.3162841796875
1731409630389828900,12.162828857421875,0.4283294677734375,-0.8359832763671875,-0.31512451171875
1731409630399850000,12.17285009765625,0.4115142822265625,-0.8394775390625,-0.3181915283203125
1731409630409870800,12.182870849609374,0.400909423828125,-0.8414764404296875,-0.31982421875
1731409630419891700,12.1928916015625,0.3968353271484375,-0.842559814453125,-0.3220672607421875
1731409630429911800,12.202911865234375,0.40576171875,-0.8441162109375,-0.3276824951171875
1731409630439933000,12.212932861328126,0.419189453125,-0.848114013671875,-0.3307647705078125
1731409630449954000,12.2229541015625,0.422637939453125,-0.8511505126953125,-0.328765869140625
1731409630459975000,12.232974853515625,0.4167938232421875,-0.8555755615234375,-0.3243255615234375
1731409630469995000,12.2429951171875,0.4063262939453125,-0.8558502197265625,-0.3230743408203125
1731409630480016000,12.253015869140626,0.3986968994140625,-0.8551177978515625,-0.31854248046875
1731409630490037000,12.263037109375,0.3972625732421875,-0.8556976318359375,-0.316162109375
1731409630500057000,12.27305712890625,0.3914337158203125,-0.858001708984375,-0.31842041015625
1731409630510078000,12.283077880859375,0.3916473388671875,-0.85528564453125,-0.3242950439453125
1731409630520098800,12.293098876953126,0.3951263427734375,-0.855804443359375,-0.321197509765625
1731409630530120000,12.303119873046874,0.390899658203125,-0.8583984375,-0.322723388671875
1731409630540140000,12.31314013671875,0.3925933837890625,-0.8551483154296875,-0.3183746337890625
1731409630550161000,12.323160888671875,0.39337158203125,-0.850311279296875,-0.3191070556640625
1731409630560181800,12.333181640625,0.39324951171875,-0.848663330078125,-0.3279876708984375
1731409630570203000,12.343202880859375,0.40179443359375,-0.8556060791015625,-0.334747314453125
1731409630580222700,12.35322265625,0.4102935791015625,-0.8667144775390625,-0.3445892333984375
1731409630590243800,12.363243896484375,0.403076171875,-0.870697021484375,-0.3507232666015625
1731409630600265000,12.373264892578124,0.4053955078125,-0.8768768310546875,-0.3480072021484375
1731409630610284800,12.383284912109374,0.408172607421875,-0.8803253173828125,-0.346343994140625
1731409630620305700,12.3933056640625,0.415435791015625,-0.88067626953125,-0.34332275390625
1731409630630326800,12.403326904296875,0.4155120849609375,-0.877532958984375,-0.3358612060546875
1731409630640347600,12.41334765625,0.40313720703125,-0.873687744140625,-0.324981689453125
1731409630650367700,12.42336767578125,0.3857879638671875,-0.868896484375,-0.3204193115234375
1731409630660388600,12.433388671875,0.37371826171875,-0.86187744140625,-0.3209686279296875
1731409630670409700,12.44340966796875,0.3749847412109375,-0.854705810546875,-0.326019287109375
1731409630680430600,12.4534306640625,0.3890533447265625,-0.851531982421875,-0.332427978515625
1731409630690450700,12.46345068359375,0.403839111328125,-0.849822998046875,-0.3391265869140625
1731409630700471600,12.473471435546875,0.4103851318359375,-0.8525390625,-0.33929443359375
1731409630710493000,12.483492919921876,0.41162109375,-0.8572998046875,-0.3321990966796875
1731409630720512800,12.4935126953125,0.4043426513671875,-0.85931396484375,-0.325897216796875
1731409630730534000,12.503533935546875,0.4010467529296875,-0.8610076904296875,-0.329345703125
1731409630740554800,12.5135546875,0.4006805419921875,-0.8567962646484375,-0.3356475830078125
1731409630750575900,12.523575927734376,0.398712158203125,-0.851531982421875,-0.3352508544921875
1731409630760595700,12.533595703125,0.3994598388671875,-0.849639892578125,-0.3275146484375
1731409630770616800,12.543616943359375,0.3984832763671875,-0.8531646728515625,-0.3191680908203125
1731409630780637700,12.5536376953125,0.4006195068359375,-0.859893798828125,-0.31109619140625
1731409630790658800,12.563658935546876,0.4054412841796875,-0.8690948486328125,-0.306976318359375
1731409630800678700,12.5736787109375,0.411468505859375,-0.8716583251953125,-0.3115692138671875
1731409630810699800,12.58369970703125,0.416839599609375,-0.870697021484375,-0.318695068359375
1731409630820720600,12.593720703125,0.41888427734375,-0.8654022216796875,-0.322662353515625
1731409630830741800,12.60374169921875,0.413818359375,-0.861053466796875,-0.3256378173828125
1731409630840761600,12.61376171875,0.41217041015625,-0.8571624755859375,-0.3306121826171875
1731409630850782700,12.62378271484375,0.4078216552734375,-0.854217529296875,-0.334259033203125
1731409630860803800,12.633803955078125,0.4051055908203125,-0.85455322265625,-0.33221435546875
1731409630870824000,12.643823974609376,0.401947021484375,-0.86016845703125,-0.3212127685546875
1731409630880844800,12.6538447265625,0.40313720703125,-0.8633880615234375,-0.3110809326171875
1731409630890866000,12.663865966796875,0.410888671875,-0.8585357666015625,-0.3109130859375
1731409630900886800,12.67388671875,0.417633056640625,-0.8509063720703125,-0.3128509521484375
1731409630910907000,12.683906982421876,0.4225921630859375,-0.84375,-0.3126373291015625
1731409630920927700,12.693927734375,0.4158935546875,-0.842987060546875,-0.3121337890625
1731409630930948600,12.703948486328125,0.4046783447265625,-0.8417510986328125,-0.3088531494140625
1731409630940968700,12.71396875,0.409027099609375,-0.8418731689453125,-0.3009796142578125
1731409630950989800,12.72398974609375,0.4260101318359375,-0.837738037109375,-0.295074462890625
1731409630961010700,12.7340107421875,0.44366455078125,-0.8340606689453125,-0.29266357421875
1731409630971031600,12.744031494140625,0.43310546875,-0.8269195556640625,-0.2989501953125
1731409630981051600,12.7540517578125,0.37646484375,-0.8263397216796875,-0.3028717041015625
1731409630991072800,12.76407275390625,0.359375,-0.8360748291015625,-0.295745849609375
1731409631001094000,12.774093994140625,0.378021240234375,-0.8419189453125,-0.2944793701171875
1731409631011114800,12.78411474609375,0.414031982421875,-0.842529296875,-0.3042755126953125
1731409631021134800,12.794134765625,0.4352874755859375,-0.8377532958984375,-0.3127899169921875
1731409631031155700,12.80415576171875,0.41937255859375,-0.8275909423828125,-0.3111114501953125
1731409631041176800,12.8141767578125,0.3851165771484375,-0.8192291259765625,-0.3011627197265625
1731409631051197000,12.824197021484375,0.3575592041015625,-0.8213653564453125,-0.2927093505859375
1731409631061217800,12.8342177734375,0.360076904296875,-0.8386688232421875,-0.2916259765625
1731409631071238700,12.84423876953125,0.3896026611328125,-0.8639068603515625,-0.30126953125
1731409631081259800,12.854259765625,0.42376708984375,-0.8872528076171875,-0.3189697265625
1731409631091280000,12.86427978515625,0.44586181640625,-0.8954315185546875,-0.3420257568359375
1731409631101300700,12.87430078125,0.452117919921875,-0.8968963623046875,-0.35577392578125
1731409631111321600,12.884321533203124,0.445770263671875,-0.8962554931640625,-0.3574981689453125
1731409631121342700,12.8943427734375,0.4309539794921875,-0.895233154296875,-0.346527099609375
1731409631131362600,12.904362548828125,0.41888427734375,-0.8968963623046875,-0.3288726806640625
1731409631141383700,12.9143837890625,0.408355712890625,-0.899810791015625,-0.314361572265625
