time,seconds_elapsed,z,y,x
1731409618326125800,0.099125732421875,0.32852795720100403,0.3293052613735199,0.09643088281154633
1731409618336147000,0.10914697265625,0.24486446380615234,0.30536529421806335,0.2472643405199051
1731409618346167800,0.119167724609375,0.12305103987455368,0.18944776058197021,0.3739284574985504
1731409618356188000,0.12918798828125,-0.0491580106317997,0.01946430653333664,0.46769779920578003
1731409618366208800,0.139208740234375,-0.25839298963546753,-0.15178661048412323,0.5158678889274597
1731409618376230000,0.14922998046875,-0.47726595401763916,-0.29182571172714233,0.5115916728973389
1731409618386249700,0.159249755859375,-0.6685472726821899,-0.36337634921073914,0.44733574986457825
1731409618396271000,0.16927099609375,-0.7826922535896301,-0.38468801975250244,0.3510850965976715
1731409618406292000,0.1792919921875,-0.7680490612983704,-0.3325437307357788,0.23589299619197845
1731409618416312800,0.189312744140625,-0.6498396396636963,-0.24909092485904694,0.12829862534999847
1731409618426333000,0.1993330078125,-0.4773503839969635,-0.21083182096481323,0.03688747435808182
1731409618436354000,0.20935400390625,-0.30762580037117004,-0.18665377795696259,-0.03049822337925434
1731409618446375000,0.219375,-0.1720205694437027,-0.16163139045238495,-0.06712599843740463
1731409618456395800,0.229395751953125,-0.06030363589525223,-0.12633757293224335,-0.06939181685447693
1731409618466415900,0.239415771484375,0.023825976997613907,-0.11232154816389084,-0.05543244630098343
1731409618476436700,0.249436767578125,0.08520597964525223,-0.11977200955152512,-0.0444389209151268
1731409618486457900,0.259457763671875,0.13966649770736694,-0.14948901534080505,-0.03036336787045002
1731409618496478000,0.26947802734375,0.19267910718917847,-0.16399526596069336,-0.012476779520511627
1731409618506498800,0.279498779296875,0.24382422864437103,-0.14318817853927612,-0.00105722073931247
1731409618516519700,0.289519775390625,0.2751573920249939,-0.10966724902391434,-0.014531750231981277
1731409618526540800,0.299540771484375,0.28271403908729553,-0.1093631163239479,-0.04479862004518509
1731409618536561000,0.309560791015625,0.27693071961402893,-0.12490265816450119,-0.07924261689186096
1731409618546582000,0.31958203125,0.2826260030269623,-0.1083844006061554,-0.10787242650985718
1731409618556603000,0.329602783203125,0.3173176646232605,-0.04373509809374809,-0.10839493572711945
1731409618566623000,0.339623046875,0.37241458892822266,0.018489394336938858,-0.08695744723081589
1731409618576643800,0.349643798828125,0.42154139280319214,0.05490918830037117,-0.05289455130696297
1731409618586665000,0.3596650390625,0.43540069460868835,0.04909311234951019,-0.017954664304852486
1731409618596685300,0.369685302734375,0.4066164493560791,-0.0016624783165752888,0.02533608488738537
1731409618606705400,0.379705322265625,0.35467153787612915,-0.08936889469623566,0.07487273216247559
1731409618616726300,0.389726318359375,0.31927546858787537,-0.13025161623954773,0.13434085249900818
1731409618626747600,0.39974755859375,0.31388500332832336,-0.1009192243218422,0.18425363302230835
1731409618636768500,0.4097685546875,0.3454189598560333,-0.02744181454181671,0.22761575877666473
1731409618646788600,0.41978857421875,0.404642254114151,0.02747482992708683,0.25675442814826965
1731409618656809500,0.4298095703125,0.48849454522132874,0.06870189309120178,0.28709766268730164
1731409618666830600,0.43983056640625,0.5732681751251221,0.09298206120729446,0.31763988733291626
1731409618676850400,0.449850341796875,0.6331592202186584,0.1241583600640297,0.32728666067123413
1731409618686871600,0.45987158203125,0.5656662583351135,0.14806362986564636,0.28583863377571106
1731409618696892400,0.469892333984375,0.38548797369003296,0.10318990051746368,0.21227654814720154
1731409618706913500,0.47991357421875,0.21027377247810364,-0.0004831012920476496,0.16358472406864166
1731409618716933400,0.489933349609375,0.08343779295682907,-0.05742787569761276,0.1550476849079132
1731409618726954500,0.49995458984375,0.012215866707265377,-0.06191616505384445,0.17575152218341827
1731409618736975400,0.509975341796875,0.008820069953799248,-0.04560217633843422,0.2235715091228485
1731409618746995500,0.519995361328125,0.051316190510988235,-0.010088590905070305,0.27899572253227234
1731409618757016300,0.530016357421875,0.1002560406923294,0.035712454468011856,0.31697797775268555
1731409618767037400,0.540037353515625,0.12484174966812134,0.08162455260753632,0.3123992085456848
1731409618777058600,0.55005859375,0.11427193135023117,0.07824739813804626,0.2819656729698181
1731409618787078400,0.560078369140625,0.09146473556756973,0.05579608306288719,0.2526633143424988
1731409618797099500,0.570099609375,0.07454860210418701,0.06042678654193878,0.2382257878780365
1731409618807120600,0.58012060546875,0.08039335161447525,0.08391419798135757,0.2252667099237442
1731409618817141500,0.5901416015625,0.09071417152881622,0.08382551372051239,0.20581470429897308
1731409618827161600,0.60016162109375,0.09315886348485947,0.052613671869039536,0.17847950756549835
1731409618837182500,0.610182373046875,0.08347321301698685,0.02116520330309868,0.13684391975402832
1731409618847203600,0.62020361328125,0.06654594838619232,-0.003023822559043765,0.0804782584309578
1731409618857223400,0.630223388671875,0.05823023244738579,-0.001523663871921599,0.021421069279313087
1731409618867244500,0.64024462890625,0.07741206884384155,0.03483467921614647,-0.0321086049079895
1731409618877265400,0.650265380859375,0.09903666377067566,0.09756836295127869,-0.059017717838287354
1731409618887286500,0.66028662109375,0.08437240868806839,0.1853516846895218,-0.06495165079832077
1731409618897306400,0.670306396484375,0.06245965510606766,0.22309905290603638,-0.05416824668645859
1731409618907327500,0.680327392578125,0.0494900606572628,0.19674015045166016,-0.025463363155722618
1731409618917348400,0.690348388671875,0.027830040082335472,0.16380803287029266,0.00927490834146738
1731409618927368400,0.700368408203125,-0.011743972077965736,0.12794332206249237,0.03689897432923317
1731409618937389600,0.7103896484375,-0.07079024612903595,0.08506403118371964,0.056796781718730927
1731409618947410700,0.72041064453125,-0.12570950388908386,0.05187005177140236,0.0642942264676094
1731409618957431600,0.730431640625,-0.1546144038438797,0.036499619483947754,0.08119890838861465
1731409618967451600,0.74045166015625,-0.16444182395935059,0.040480975061655045,0.08887559920549393
1731409618977472500,0.750472412109375,-0.16064254939556122,0.041695378720760345,0.06880734860897064
1731409618987493600,0.76049365234375,-0.15862123668193817,0.05990627035498619,0.0212085098028183
1731409618997514500,0.770514404296875,-0.15098488330841064,0.07398960739374161,-0.03978879749774933
1731409619007534600,0.78053466796875,-0.14364105463027954,0.09794093668460846,-0.10282596200704575
1731409619017555500,0.790555419921875,-0.13911233842372894,0.11595828831195831,-0.15913930535316467
1731409619027576300,0.800576416015625,-0.13853615522384644,0.1356804072856903,-0.20103628933429718
1731409619037596400,0.810596435546875,-0.13978543877601624,0.14520280063152313,-0.21756945550441742
1731409619047617500,0.820617431640625,-0.1370173841714859,0.11870408058166504,-0.21740667521953583
1731409619057638400,0.830638427734375,-0.1290002018213272,0.050913579761981964,-0.1878911256790161
1731409619067659500,0.840659423828125,0.04500038921833038,-0.13595077395439148,-0.0839575007557869
1731409619077679400,0.850679443359375,0.2635468542575836,-0.220063254237175,0.0944439247250557
1731409619087700500,0.860700439453125,0.3404572010040283,-0.21584667265415192,0.24739043414592743
1731409619097721600,0.8707216796875,0.24539005756378174,-0.18639451265335083,0.3276120126247406
1731409619107741700,0.88074169921875,0.08200588822364807,-0.11285251379013062,0.35917583107948303
1731409619117762600,0.890762451171875,-0.059787191450595856,-0.09574943035840988,0.3498923182487488
1731409619127783400,0.900783447265625,-0.14773784577846527,-0.12581858038902283,0.3102317452430725
1731409619137804500,0.910804443359375,-0.16220280528068542,-0.16984835267066956,0.2587355375289917
1731409619147824600,0.92082470703125,-0.12119989097118378,-0.22622227668762207,0.20085026323795319
1731409619157845500,0.930845458984375,-0.0689966082572937,-0.2752883732318878,0.14381466805934906
1731409619167866400,0.940866455078125,-0.03631192445755005,-0.26634472608566284,0.10993364453315735
1731409619177887500,0.950887451171875,-0.04225583374500275,-0.24684827029705048,0.09500475972890854
1731409619187907600,0.960907470703125,-0.07415144890546799,-0.24079696834087372,0.10077286511659622
1731409619197928400,0.970928466796875,-0.10571204125881195,-0.26723921298980713,0.13720570504665375
1731409619207949300,0.98094921875,-0.12796668708324432,-0.3279717266559601,0.20174963772296906
1731409619217969400,0.990969482421875,-0.1351710706949234,-0.41114598512649536,0.27632588148117065
1731409619227990300,1.000990234375,-0.13508453965187073,-0.5214370489120483,0.3502519130706787
1731409619238011600,1.01101171875,-0.1362760365009308,-0.6608298420906067,0.4323633015155792
1731409619248032500,1.021032470703125,-0.1545930802822113,-0.7942174673080444,0.5282161831855774
1731409619258052600,1.031052490234375,-0.2183731347322464,-0.948978841304779,0.6260148882865906
1731409619268073500,1.041073486328125,-0.30788153409957886,-1.0676019191741943,0.7279092073440552
1731409619278094600,1.051094482421875,-0.38507992029190063,-1.096983551979065,0.8405132293701172
1731409619288114400,1.061114501953125,-0.4227708876132965,-1.0698233842849731,0.9293673634529114
1731409619298135600,1.071135498046875,-0.4043807089328766,-1.0255235433578491,0.9971227049827576
1731409619308156400,1.081156494140625,-0.338359534740448,-0.9880125522613525,1.0303118228912354
1731409619318177500,1.091177490234375,-0.24261727929115295,-0.9869499206542969,1.044189214706421
1731409619328197400,1.101197265625,-0.18968647718429565,-0.7576208114624023,0.8747401833534241
1731409619338218500,1.111218505859375,-0.16160424053668976,-0.49800440669059753,0.5734642148017883
1731409619348239400,1.1212392578125,-0.09531766176223755,-0.46871015429496765,0.41670331358909607
1731409619358260500,1.131260498046875,-0.039465051144361496,-0.34252291917800903,0.33628302812576294
1731409619368280300,1.1412802734375,0.012959422543644905,-0.14975781738758087,0.2293432056903839
1731409619378301400,1.151301513671875,0.10286960750818253,-0.0642242580652237,0.13448113203048706
1731409619388322600,1.161322509765625,0.19700461626052856,-0.0521337129175663,0.10052700340747833
1731409619398342700,1.1713427734375,0.23311708867549896,-0.10980074107646942,0.12725181877613068
1731409619408363500,1.181363525390625,0.1863216906785965,-0.2478768527507782,0.19436825811862946
1731409619418384600,1.191384521484375,0.14157764613628387,-0.4519767165184021,0.30326226353645325
1731409619428405500,1.201405517578125,0.16156135499477386,-0.7065118551254272,0.46016961336135864
1731409619438425600,1.211425537109375,0.2666712701320648,-0.9753933548927307,0.6286989450454712
1731409619448446500,1.221446533203125,0.426963210105896,-1.1922110319137573,0.7084820866584778
1731409619458467600,1.231467529296875,0.5425806641578674,-1.3063474893569946,0.6606932282447815
1731409619468487400,1.2414873046875,0.648841917514801,-1.2934963703155518,0.5467787384986877
1731409619478508500,1.251508544921875,0.7617327570915222,-1.1806632280349731,0.41668516397476196
1731409619488529400,1.261529296875,0.8779512047767639,-0.973577082157135,0.33048996329307556
1731409619498550500,1.271550537109375,0.9637559056282043,-0.7534223198890686,0.29946041107177734
1731409619508570400,1.2815703125,0.9285765290260315,-0.5250985622406006,0.37185969948768616
1731409619518591500,1.291591552734375,0.8162944316864014,-0.33264732360839844,0.5577035546302795
1731409619528612600,1.301612548828125,0.6651639938354492,-0.22058643400669098,0.8250138163566589
1731409619538633500,1.311633544921875,0.5099541544914246,-0.2175493687391281,1.1030768156051636
1731409619548653600,1.321653564453125,0.38193878531455994,-0.4066180884838104,1.322841763496399
1731409619558674700,1.3316748046875,0.2913111448287964,-0.7752885222434998,1.4426605701446533
1731409619568695600,1.341695556640625,0.28803011775016785,-1.1896756887435913,1.4757473468780518
1731409619578715600,1.351715576171875,0.3809800446033478,-1.5223002433776855,1.5028167963027954
1731409619588736500,1.361736572265625,0.49705469608306885,-1.732526183128357,1.5943989753723145
1731409619598757400,1.37175732421875,0.5930858850479126,-1.826664924621582,1.727870225906372
1731409619608778200,1.3817783203125,0.6484013199806213,-1.7825185060501099,1.9130576848983765
1731409619618798300,1.39179833984375,0.6574661731719971,-1.8892990350723267,2.211292266845703
1731409619628819200,1.401819091796875,0.6936860680580139,-2.1348018646240234,2.5770204067230225
1731409619638840300,1.41184033203125,0.7544077634811401,-2.2229080200195312,2.948082208633423
1731409619648860200,1.421860107421875,0.7927232384681702,-2.1391146183013916,3.287583589553833
1731409619658881300,1.43188134765625,0.7668514251708984,-1.9939002990722656,3.5179946422576904
1731409619668902100,1.441902099609375,0.6975701451301575,-1.8502848148345947,3.610229730606079
1731409619678923300,1.45192333984375,0.665919303894043,-1.7268800735473633,3.6108834743499756
1731409619688943000,1.461943115234375,0.6876466870307922,-1.620277762413025,3.6351146697998047
1731409619698964500,1.471964599609375,0.707700788974762,-1.634783148765564,3.7275662422180176
1731409619708985300,1.4819853515625,0.6492632031440735,-1.6201871633529663,3.838799476623535
1731409619719006200,1.492006103515625,0.5204898118972778,-1.5475411415100098,3.927668809890747
1731409619729026300,1.5020263671875,0.3316953480243683,-1.589788794517517,3.9270801544189453
1731409619739047200,1.512047119140625,0.11109427362680435,-1.6259105205535889,3.723212718963623
1731409619749068300,1.522068359375,0.03698347136378288,-1.5803611278533936,3.5033059120178223
1731409619759088400,1.53208837890625,0.14141374826431274,-1.4557830095291138,3.349825382232666
1731409619769109200,1.542109130859375,0.24582913517951965,-1.3468973636627197,3.2320640087127686
1731409619779130000,1.552130126953125,0.16918201744556427,-1.0117286443710327,3.017744302749634
1731409619789151200,1.562151123046875,-0.09266901016235352,-0.5595960021018982,2.737367868423462
1731409619799171300,1.57217138671875,-0.21452461183071136,-0.2667934000492096,2.5278756618499756
1731409619809192200,1.582192138671875,-0.20843251049518585,-0.07162106037139893,2.404301881790161
1731409619819213000,1.592213134765625,-0.17878380417823792,0.012398476712405682,2.3227553367614746
1731409619829234400,1.602234375,-0.18457315862178802,-0.07683945447206497,2.2612226009368896
1731409619839254000,1.61225390625,-0.20890672504901886,-0.27334532141685486,2.229253053665161
1731409619849275400,1.622275390625,-0.21426361799240112,-0.3734508752822876,2.1983094215393066
1731409619859296300,1.632296142578125,-0.21047447621822357,-0.3127555549144745,2.1025004386901855
1731409619869316400,1.64231640625,-0.2471536248922348,-0.20194052159786224,1.955461859703064
1731409619879337200,1.652337158203125,-0.3768157362937927,-0.15805615484714508,1.7811311483383179
1731409619889358300,1.6623583984375,-0.5489287972450256,-0.08922941237688065,1.5793633460998535
1731409619899379200,1.672379150390625,-0.6864030361175537,-0.015821244567632675,1.3394585847854614
1731409619909399300,1.6823994140625,-0.7526280283927917,0.06561369448900223,1.0696674585342407
1731409619919420200,1.692420166015625,-0.6830074191093445,0.16271360218524933,0.8402916789054871
1731409619929441300,1.702441162109375,-0.4940146207809448,0.35422366857528687,0.7255014181137085
1731409619939461000,1.712461181640625,-0.2889474928379059,0.5235950946807861,0.6946462988853455
1731409619949482200,1.722482177734375,-0.12417074292898178,0.518853485584259,0.7381730675697327
1731409619959503000,1.732503173828125,-0.012345935218036175,0.49803581833839417,0.9285722970962524
1731409619969524200,1.742524169921875,0.06926329433917999,0.6819266080856323,1.2965847253799438
1731409619979544000,1.7525439453125,0.1528271585702896,0.9840529561042786,1.7504163980484009
1731409619989565200,1.762565185546875,0.2358494997024536,1.3625279664993286,2.242053985595703
1731409619999586300,1.77258642578125,0.33496329188346863,1.7122849225997925,2.725403070449829
1731409620009607400,1.782607421875,0.4409931004047394,2.0179150104522705,3.2105681896209717
1731409620019627300,1.792627197265625,0.5903304219245911,2.383960008621216,3.803596258163452
1731409620029648400,1.8026484375,0.8208047747612,2.838799238204956,4.529136657714844
1731409620039669200,1.812669189453125,1.0313026905059814,3.208756685256958,5.277620315551758
1731409620049689300,1.822689453125,1.2193816900253296,3.351797103881836,5.956356525421143
1731409620059710200,1.832710205078125,1.3009250164031982,3.169379234313965,6.535800457000732
1731409620069731300,1.8427314453125,1.2768852710723877,2.6421267986297607,7.066331386566162
1731409620079752200,1.852752197265625,1.1853532791137695,2.1852028369903564,7.402649402618408
1731409620089772300,1.862772216796875,1.1130989789962769,2.1937742233276367,8.13032341003418
1731409620099793200,1.872793212890625,0.3321231007575989,1.278303861618042,0.6457574367523193
1731409620109814300,1.882814208984375,0.10138563066720963,0.4075259566307068,-1.0897947549819946
1731409620119835100,1.892835205078125,-0.7502051591873169,-0.08437533676624298,-1.0058673620224
1731409620129855200,1.902855224609375,-0.8905437588691711,0.4465682804584503,-0.32593515515327454
1731409620139876400,1.91287646484375,-0.7644014954566956,0.8353216052055359,0.16242387890815735
1731409620149897200,1.922897216796875,-0.44807177782058716,0.6942102909088135,0.13227690756320953
1731409620159917300,1.932917236328125,-0.13910728693008423,0.30438610911369324,-0.09623830020427704
1731409620169938400,1.9429384765625,0.17324301600456238,-0.39136171340942383,-0.39492267370224
1731409620179959300,1.952959228515625,0.2954874336719513,-0.9392905831336975,-0.8161510825157166
1731409620189980200,1.962980224609375,0.25504109263420105,-1.1762596368789673,-1.2672655582427979
1731409620200000300,1.973000244140625,0.05599004030227661,-1.0936801433563232,-1.6796493530273438
1731409620210021400,1.983021484375,-0.22895769774913788,-0.7433727979660034,-1.9951344728469849
1731409620220042200,1.993042236328125,-0.4522397816181183,-0.28454771637916565,-2.2087290287017822
1731409620230062300,2.003062255859375,-0.5823007822036743,0.17551064491271973,-2.3408212661743164
1731409620240083200,2.013083251953125,-0.6434744000434875,0.4208884537220001,-2.4076015949249268
1731409620250104000,2.02310400390625,-0.6461309790611267,0.35903823375701904,-2.4196743965148926
1731409620260125200,2.033125244140625,-0.6215174794197083,0.018492121249437332,-2.396839141845703
1731409620270145300,2.043145263671875,-0.5883647203445435,-0.4944271743297577,-2.3902904987335205
1731409620280166100,2.053166259765625,-0.5661880373954773,-1.032344102859497,-2.4246506690979004
1731409620290187300,2.063187255859375,-0.5777670741081238,-1.4017330408096313,-2.480901002883911
1731409620300208400,2.07320849609375,-0.5413510203361511,-1.4889819622039795,-2.5426952838897705
1731409620310228200,2.083228271484375,-0.40389174222946167,-1.292413353919983,-2.6198346614837646
1731409620320249300,2.093249267578125,-0.2545163631439209,-0.9081365466117859,-2.673110008239746
1731409620330270200,2.103270263671875,-0.1140366941690445,-0.5219051241874695,-2.581871271133423
1731409620340290300,2.113290283203125,0.0340193472802639,-0.27663174271583557,-2.3962106704711914
1731409620350311200,2.123311279296875,0.15356113016605377,-0.31441980600357056,-2.224370002746582
1731409620360332300,2.133332275390625,0.21090058982372284,-0.5130244493484497,-2.0528721809387207
1731409620370353200,2.143353271484375,0.28732627630233765,-0.7223631143569946,-1.913241982460022
1731409620380373200,2.153373291015625,0.3526267111301422,-0.9349534511566162,-1.8568639755249023
1731409620390394000,2.16339404296875,0.3390033543109894,-1.0278621912002563,-1.8568007946014404
1731409620400415200,2.173415283203125,0.24912035465240479,-1.070549488067627,-1.9001731872558594
1731409620410435000,2.18343505859375,0.09204033017158508,-1.0649372339248657,-1.868692398071289
1731409620420456200,2.193456298828125,-0.05339435860514641,-0.8381821513175964,-1.5971267223358154
1731409620430477000,2.20347705078125,-0.11687316745519638,-0.5220029354095459,-1.173384666442871
1731409620440498400,2.21349853515625,-0.09322616457939148,-0.27241653203964233,-0.7791130542755127
1731409620450518000,2.22351806640625,-0.009880910627543926,-0.08745654672384262,-0.5314860939979553
1731409620460539400,2.233539306640625,0.09734248369932175,-0.0067688943818211555,-0.476319819688797
1731409620470560300,2.243560302734375,0.20337271690368652,-0.03626832738518715,-0.4953288435935974
1731409620480581400,2.253581298828125,0.3003551959991455,-0.05851397663354874,-0.41194018721580505
1731409620490601200,2.263601318359375,0.34066060185432434,-0.01742473430931568,-0.20157188177108765
1731409620500622300,2.273622314453125,0.32979756593704224,0.03290900960564613,0.06464757025241852
1731409620510643200,2.283643310546875,0.282623291015625,0.1444137692451477,0.3701399862766266
1731409620520663300,2.293663330078125,0.207519993185997,0.2913174629211426,0.6990821957588196
1731409620530684200,2.30368408203125,0.15936075150966644,0.4279352128505707,1.0238611698150635
1731409620540705300,2.313705322265625,0.1574760228395462,0.5863027572631836,1.3263181447982788
1731409620550726100,2.32372607421875,0.18327860534191132,0.7329434156417847,1.612142562866211
1731409620560746200,2.333746337890625,0.23752586543560028,0.8139117360115051,1.9140923023223877
1731409620570767000,2.34376708984375,0.27397432923316956,0.9006546139717102,2.3122684955596924
1731409620580788200,2.353788330078125,0.3294956684112549,1.026416301727295,2.8491663932800293
1731409620590809300,2.363809326171875,0.39041805267333984,1.1661323308944702,3.4433181285858154
1731409620600829000,2.373828857421875,0.3944322168827057,1.3324079513549805,4.060824394226074
1731409620610850000,2.38385009765625,0.36872658133506775,1.534278154373169,4.731499195098877
1731409620620871200,2.39387109375,0.35133934020996094,1.7501057386398315,5.461777210235596
1731409620630891000,2.40389111328125,0.3267888128757477,1.9954241514205933,6.21645975112915
1731409620640912100,2.413912109375,0.28881746530532837,2.1334309577941895,6.9806036949157715
1731409620650933000,2.42393310546875,0.31987982988357544,2.0502266883850098,7.727777481079102
1731409620660954000,2.4339541015625,0.4608161747455597,1.736457347869873,8.247888565063477
1731409620670974000,2.443973876953125,0.3787473440170288,-0.14257240295410156,8.201349258422852
1731409620680995000,2.4539951171875,0.07620079815387726,0.7342683672904968,0.6909615397453308
1731409620691016000,2.464015869140625,0.5507210493087769,0.6878032088279724,-0.6942611932754517
1731409620701037000,2.474037109375,0.5121171474456787,-0.13489703834056854,-1.2600209712982178
1731409620711057000,2.484056884765625,0.31231003999710083,0.07900167256593704,-0.9560869336128235
1731409620721078000,2.494078125,0.28526297211647034,0.5095160603523254,0.003827389096841216
1731409620731099000,2.504098876953125,0.2413407564163208,0.6382007002830505,0.7498884797096252
1731409620741119000,2.514118896484375,0.288321852684021,0.25365403294563293,0.928773820400238
1731409620751140000,2.52414013671875,0.39925310015678406,-0.30996477603912354,0.7844216227531433
1731409620761161200,2.5341611328125,0.539764940738678,-0.7956763505935669,0.4519113600254059
1731409620771182000,2.54418212890625,0.6315081119537354,-1.1167412996292114,-0.012847857549786568
1731409620781202200,2.5542021484375,0.5661773085594177,-1.2887992858886719,-0.4960677921772003
1731409620791223000,2.56422314453125,0.3236311674118042,-1.2542227506637573,-0.944172739982605
1731409620801244000,2.574243896484375,0.03562762960791588,-0.9445216059684753,-1.2860163450241089
1731409620811264000,2.584263916015625,-0.19890356063842773,-0.4625120460987091,-1.513176679611206
1731409620821285000,2.59428515625,-0.32736513018608093,0.055670116096735,-1.6757824420928955
1731409620831306000,2.604305908203125,-0.3697221577167511,0.3844231069087982,-1.8407621383666992
1731409620841326800,2.614326904296875,-0.34558138251304626,0.43911829590797424,-1.9926050901412964
1731409620851347000,2.624346923828125,-0.27740734815597534,0.2528192102909088,-2.107164144515991
1731409620861368000,2.6343681640625,-0.18073804676532745,-0.11558092385530472,-2.2145421504974365
1731409620871389000,2.644388916015625,-0.09287368506193161,-0.5505437254905701,-2.311767339706421
1731409620881409800,2.654409912109375,-0.06902933865785599,-0.92405766248703,-2.374046802520752
1731409620891430000,2.664429931640625,-0.08734765648841858,-1.1745909452438354,-2.3911383152008057
1731409620901451000,2.674450927734375,-0.05290525406599045,-1.198214054107666,-2.3841099739074707
1731409620911472000,2.68447216796875,0.014104701578617096,-0.9637976884841919,-2.360844850540161
1731409620921492200,2.6944921875,0.09012064337730408,-0.6310506463050842,-2.2878549098968506
1731409620931513000,2.70451318359375,0.16899967193603516,-0.3664368987083435,-2.1881542205810547
1731409620941534000,2.714533935546875,0.22871147096157074,-0.27995234727859497,-2.0862979888916016
1731409620951555000,2.72455517578125,0.2751462161540985,-0.40366238355636597,-2.016456365585327
1731409620961575000,2.734574951171875,0.3366777300834656,-0.6686295866966248,-2.0051321983337402
1731409620971596000,2.744595947265625,0.3346950113773346,-0.8691733479499817,-2.0445468425750732
1731409620981617000,2.754616943359375,0.2672848105430603,-0.951119601726532,-2.0998291969299316
1731409620991638000,2.764637939453125,0.1482429951429367,-0.8823040127754211,-2.153398275375366
1731409621001657900,2.774657958984375,0.01485352125018835,-0.630293071269989,-2.2077059745788574
1731409621011679000,2.784678955078125,-0.0463411845266819,-0.35200783610343933,-2.2564339637756348
1731409621021699800,2.794699951171875,-0.028501467779278755,-0.05760630965232849,-2.218496561050415
1731409621031720000,2.804719970703125,0.04269660636782646,0.19162948429584503,-2.103994846343994
1731409621041740800,2.81474072265625,0.15373843908309937,0.31638607382774353,-1.9941298961639404
1731409621051762200,2.82476220703125,0.24831876158714294,0.31485047936439514,-1.9164538383483887
1731409621061783000,2.834782958984375,0.3015649616718292,0.27947837114334106,-1.8771048784255981
1731409621071803100,2.84480322265625,0.37978416681289673,0.24520502984523773,-1.9213589429855347
1731409621081824000,2.854823974609375,0.45919349789619446,0.1929338276386261,-2.0191287994384766
1731409621091845000,2.86484521484375,0.5103354454040527,0.14933042228221893,-2.1072354316711426
1731409621101866000,2.874865966796875,0.5121176242828369,0.04582880437374115,-2.176988124847412
1731409621111886000,2.884885986328125,0.39356163144111633,-0.09148771315813065,-2.135737895965576
1731409621121907000,2.894906982421875,0.2032281905412674,-0.09983432292938232,-1.8452693223953247
1731409621131928000,2.904927978515625,0.007845858111977577,-0.08069518208503723,-1.3985003232955933
1731409621141948000,2.914947998046875,-0.09705846011638641,-0.08322998136281967,-0.9781147837638855
1731409621151969000,2.924968994140625,-0.07012853771448135,-0.034707583487033844,-0.7240433096885681
1731409621161990000,2.934989990234375,0.04123074188828468,0.026249509304761887,-0.6659134030342102
1731409621172011000,2.945010986328125,0.18490204215049744,0.08091115951538086,-0.7476384043693542
1731409621182030800,2.95503076171875,0.3081371486186981,0.1819690614938736,-0.8961396813392639
1731409621192052000,2.965052001953125,0.321392297744751,0.28078559041023254,-1.00959050655365
1731409621202073000,2.975072998046875,0.23914456367492676,0.23497441411018372,-0.9464317560195923
1731409621212094000,2.985093994140625,0.10732096433639526,0.1765013337135315,-0.6415066123008728
1731409621222114000,2.995114013671875,-0.04922444373369217,0.1115734651684761,-0.20231512188911438
1731409621232135200,3.00513525390625,-0.191053569316864,-0.061417825520038605,0.32336050271987915
1731409621242156000,3.015156005859375,-0.3092065751552582,-0.2472340315580368,1.0671782493591309
1731409621252176100,3.025176025390625,-0.4149678647518158,-0.29552701115608215,2.1005988121032715
1731409621262197000,3.035197021484375,-0.47460082173347473,-0.15526814758777618,3.2662904262542725
1731409621272218000,3.045218017578125,-0.46555647253990173,0.08905444294214249,4.293181419372559
1731409621282239000,3.055239013671875,-0.4116026759147644,0.28322017192840576,5.1133503913879395
1731409621292259000,3.065259033203125,-0.3587031066417694,0.43202704191207886,5.813195705413818
1731409621302280000,3.075280029296875,-0.3348909616470337,0.7681499123573303,6.481804370880127
1731409621312300800,3.08530078125,-0.2939824163913727,1.3070052862167358,7.047800540924072
1731409621322322000,3.095322021484375,-0.16907405853271484,1.9031906127929688,7.453583717346191
1731409621332342000,3.105342041015625,0.04842095077037811,2.3589041233062744,7.712685585021973
1731409621342363000,3.11536279296875,0.2680808901786804,2.6893537044525146,7.897352695465088
1731409621352384000,3.125384033203125,0.3752427101135254,2.3596129417419434,8.151742935180664
1731409621362404000,3.135404052734375,-0.09454262256622314,-3.7873752117156982,8.60102367401123
1731409621372425000,3.145425048828125,-0.13070741295814514,-0.1326606422662735,0.6389231085777283
1731409621382446000,3.155446044921875,0.7454454302787781,-0.46996888518333435,-0.822021484375
1731409621392467000,3.165467041015625,0.6713789105415344,-0.6375945806503296,-1.5224897861480713
1731409621402487000,3.175487060546875,0.2570856213569641,-0.14554761350154877,-1.5267984867095947
1731409621412508000,3.1855078125,0.06468135863542557,0.09427869319915771,-0.9469748139381409
1731409621422529000,3.195529052734375,0.0008432537433691323,0.4079383611679077,-0.3162271976470947
1731409621432550000,3.2055498046875,0.0936066284775734,0.3805502653121948,-0.1111912801861763
1731409621442570000,3.215570068359375,0.22701528668403625,-0.24560336768627167,-0.3180240988731384
1731409621452590800,3.2255908203125,0.29234740138053894,-0.9539771676063538,-0.6416636109352112
1731409621462612000,3.235612060546875,0.24480946362018585,-1.4994755983352661,-0.9049757122993469
1731409621472631800,3.2456318359375,0.10283826291561127,-1.7303186655044556,-1.0762079954147339
1731409621482653000,3.25565283203125,-0.05883345007896423,-1.5305280685424805,-1.1630589962005615
1731409621492674000,3.265674072265625,-0.20171552896499634,-1.0310156345367432,-1.2143316268920898
1731409621502695200,3.275695068359375,-0.3599222004413605,-0.415995329618454,-1.2730852365493774
1731409621512715000,3.285715087890625,-0.4931241273880005,0.08411840349435806,-1.3339396715164185
1731409621522736000,3.295736083984375,-0.5768805742263794,0.36498042941093445,-1.3187284469604492
1731409621532757000,3.305757080078125,-0.6299618482589722,0.3671810030937195,-1.2788734436035156
1731409621542777000,3.315777099609375,-0.6461415886878967,0.16069599986076355,-1.254625678062439
1731409621552798000,3.3257978515625,-0.6332834362983704,-0.08869065344333649,-1.2068421840667725
1731409621562819000,3.335819091796875,-0.622557520866394,-0.266684889793396,-1.1171592473983765
1731409621572840000,3.34583984375,-0.6271973848342896,-0.31418049335479736,-0.9860349297523499
1731409621582860000,3.355860107421875,-0.654811680316925,-0.24035795032978058,-0.8159513473510742
1731409621592881000,3.365880859375,-0.666403591632843,-0.12878793478012085,-0.6146748065948486
1731409621602902000,3.375902099609375,-0.6656384468078613,-0.013610485941171646,-0.4016821086406708
1731409621612923100,3.385923095703125,-0.6343240141868591,0.0567253939807415,-0.18465681374073029
1731409621622943000,3.39594287109375,-0.5644077658653259,0.03742333501577377,0.0034979258198291063
1731409621632964000,3.405964111328125,-0.49646931886672974,-0.029522009193897247,0.1511416733264923
1731409621642985200,3.415985107421875,-0.44808048009872437,-0.12451349943876266,0.2605568468570709
1731409621653005000,3.426005126953125,-0.41044509410858154,-0.1866064965724945,0.3392091691493988
1731409621663026200,3.436026123046875,-0.37082791328430176,-0.203584685921669,0.40133193135261536
1731409621673047000,3.446047119140625,-0.3472186028957367,-0.1698010265827179,0.4464523196220398
1731409621683068200,3.456068115234375,-0.34740927815437317,-0.11753275990486145,0.48856595158576965
1731409621693088000,3.466087890625,-0.3435201346874237,-0.08010269701480865,0.5410950183868408
1731409621703109000,3.476109130859375,-0.3348720371723175,-0.0011500861728563905,0.6141154766082764
1731409621713130000,3.4861298828125,-0.33257126808166504,0.0960620790719986,0.6875110268592834
1731409621723150800,3.49615087890625,-0.3126058280467987,0.1391451060771942,0.7282560467720032
1731409621733171000,3.5061708984375,-0.3002380132675171,0.10188974440097809,0.7324894666671753
1731409621743192000,3.516192138671875,-0.3142331838607788,0.052284639328718185,0.7280119061470032
1731409621753213000,3.526212890625,-0.3323681056499481,-0.022794531658291817,0.7375591993331909
1731409621763233000,3.53623291015625,-0.35074180364608765,-0.07722234725952148,0.762582004070282
1731409621773254100,3.546254150390625,-0.35695862770080566,-0.09460766613483429,0.7994909882545471
1731409621783275000,3.55627490234375,-0.3603363037109375,-0.05415984243154526,0.8127562403678894
1731409621793296100,3.566296142578125,-0.3680242598056793,0.0007420854526571929,0.7811291217803955
1731409621803316200,3.576316162109375,-0.36596402525901794,0.04784568026661873,0.7062069177627563
1731409621813337000,3.586337158203125,-0.35523244738578796,0.08164200186729431,0.6146769523620605
1731409621823358000,3.59635791015625,-0.39027512073516846,0.08988634496927261,0.5207366347312927
1731409621833379000,3.606379150390625,-0.4553825259208679,0.08408597856760025,0.448832631111145
1731409621843399200,3.616399169921875,-0.4849579930305481,0.10794257372617722,0.37999019026756287
1731409621853420000,3.626419921875,-0.48701053857803345,0.15615558624267578,0.3147163391113281
1731409621863441000,3.63644091796875,-0.5090306401252747,0.24348649382591248,0.2640526294708252
1731409621873461000,3.6464609375,-0.5601181387901306,0.33951836824417114,0.23501163721084595
1731409621883481900,3.65648193359375,-0.6200928092002869,0.4069434702396393,0.21867580711841583
1731409621893503000,3.6665029296875,-0.6537816524505615,0.4583996534347534,0.18713423609733582
1731409621903523800,3.67652392578125,-0.6692333221435547,0.4965275824069977,0.1408570259809494
1731409621913544000,3.6865439453125,-0.6526097655296326,0.5282818675041199,0.0984809547662735
1731409621923565000,3.69656494140625,-0.6122391819953918,0.5597026348114014,0.09406889230012894
1731409621933586200,3.706586181640625,-0.6085692644119263,0.5622385740280151,0.12039146572351456
1731409621943607000,3.71660693359375,-0.6013816595077515,0.5123788714408875,0.17136943340301514
1731409621953627100,3.726627197265625,-0.5494643449783325,0.4182569682598114,0.23833522200584412
1731409621963648000,3.73664794921875,-0.4955421984195709,0.26597660779953003,0.3244011402130127
1731409621973669000,3.746669189453125,-0.4470227062702179,0.08725986629724503,0.40945446491241455
1731409621983690000,3.75668994140625,-0.4025697410106659,-0.06481514871120453,0.47282516956329346
1731409621993710000,3.7667099609375,-0.35676857829093933,-0.18089048564434052,0.49826374650001526
1731409622003731000,3.77673095703125,-0.2964777946472168,-0.2508370876312256,0.4819132685661316
1731409622013752000,3.786751953125,-0.2330908328294754,-0.2807479798793793,0.44713473320007324
1731409622023772000,3.79677197265625,-0.20883876085281372,-0.2899036407470703,0.39043205976486206
1731409622033793000,3.80679296875,-0.18559177219867706,-0.2818574011325836,0.2903604805469513
1731409622043814000,3.81681396484375,-0.15792100131511688,-0.2358851134777069,0.16633948683738708
1731409622053835300,3.826835205078125,-0.1632222682237625,-0.16057150065898895,0.06523506343364716
1731409622063854800,3.836854736328125,-0.1896946281194687,-0.09570010006427765,0.007769369520246983
1731409622073876200,3.846876220703125,-0.2246142476797104,-0.05261661112308502,-0.025204123929142952
1731409622083897000,3.85689697265625,-0.25333085656166077,-0.10109652578830719,-0.09968341886997223
1731409622093918200,3.866918212890625,-0.29576870799064636,-0.3453221023082733,-0.28620272874832153
1731409622103938000,3.87693798828125,-0.37166666984558105,-0.7380547523498535,-0.5240339040756226
1731409622113959200,3.886959228515625,-0.396782249212265,-1.0343717336654663,-0.695068359375
1731409622123980000,3.89697998046875,-0.31472066044807434,-1.2123126983642578,-0.7753019332885742
1731409622134000000,3.907000244140625,-0.1592966467142105,-1.2338316440582275,-0.7903482913970947
1731409622144021000,3.91702099609375,-0.056817676872015,-1.1589452028274536,-0.7859673500061035
1731409622154042000,3.9270419921875,-0.05016036704182625,-1.0463056564331055,-0.7998681664466858
1731409622164063000,3.93706298828125,-0.06764321774244308,-0.8602827787399292,-0.8117935061454773
1731409622174083000,3.9470830078125,-0.002511856146156788,-0.5654951930046082,-0.7741002440452576
1731409622184104000,3.95710400390625,0.13901890814304352,-0.22516295313835144,-0.6931236386299133
1731409622194125000,3.967125,0.279229998588562,0.11384068429470062,-0.5942652821540833
1731409622204146200,3.977146240234375,0.37458473443984985,0.38080766797065735,-0.5036517381668091
1731409622214166000,3.987166015625,0.39218947291374207,0.515333890914917,-0.43397462368011475
1731409622224187100,3.997187255859375,0.3400868773460388,0.49772027134895325,-0.3905707001686096
1731409622234208000,4.0072080078125,0.21724624931812286,0.3153943121433258,-0.3833322525024414
1731409622244228000,4.01722802734375,0.06937769055366516,0.10370922088623047,-0.41810646653175354
1731409622254249200,4.027249267578125,-0.058769240975379944,-0.015827171504497528,-0.4650646150112152
1731409622264270000,4.03727001953125,-0.11896520107984543,-0.03655695170164108,-0.4713001549243927
1731409622274291000,4.047291015625,-0.08791851252317429,-0.0519096739590168,-0.41769924759864807
1731409622284311000,4.05731103515625,-0.026288706809282303,-0.09838049858808517,-0.29502394795417786
1731409622294332000,4.067331787109375,0.003082970390096307,-0.16521531343460083,-0.11165216565132141
1731409622304353000,4.07735302734375,-0.016941605135798454,-0.2079542577266693,0.12535879015922546
1731409622314374000,4.087373779296875,-0.06966588646173477,-0.27817416191101074,0.3719281852245331
1731409622324394000,4.09739404296875,-0.14484161138534546,-0.3523104190826416,0.5594764947891235
1731409622334414800,4.107414794921875,-0.2437402307987213,-0.38433706760406494,0.644016683101654
1731409622344436000,4.11743603515625,-0.3046392500400543,-0.3280993700027466,0.6320734620094299
1731409622354456000,4.1274560546875,-0.27936407923698425,-0.14901864528656006,0.5511327385902405
1731409622364477200,4.137477294921875,-0.21214641630649567,0.0664563849568367,0.41899383068084717
1731409622374498000,4.147498046875,-0.17470617592334747,0.20081239938735962,0.2595379650592804
1731409622384519200,4.157519287109375,-0.16419920325279236,0.23931345343589783,0.08073414862155914
1731409622394539000,4.1675390625,-0.20132197439670563,0.185598224401474,-0.10162253677845001
1731409622404560100,4.17756005859375,-0.29204708337783813,0.12097848206758499,-0.2317429780960083
1731409622414581000,4.1875810546875,-0.3514806032180786,0.05526824668049812,-0.2549245059490204
1731409622424602000,4.19760205078125,-0.2814863324165344,-0.06943614035844803,-0.16899389028549194
1731409622434622000,4.2076220703125,-0.15722644329071045,-0.2798523008823395,0.0037452420219779015
1731409622444643000,4.21764306640625,-0.09988966584205627,-0.44828444719314575,0.18334722518920898
1731409622454664000,4.227663818359375,-0.09988966584205627,-0.5398015379905701,0.2603088319301605
1731409622464684000,4.23768408203125,-0.12673938274383545,-0.6125234365463257,0.19397643208503723
1731409622474705000,4.247704833984375,-0.16325052082538605,-0.636890172958374,0.060074493288993835
1731409622484726000,4.25772607421875,-0.18925948441028595,-0.6119392514228821,-0.06104500591754913
1731409622494747000,4.267746826171875,-0.19685867428779602,-0.5504785776138306,-0.1194603443145752
1731409622504767000,4.27776708984375,-0.21090498566627502,-0.5224301815032959,-0.09822536259889603
1731409622514788000,4.2877880859375,-0.1867920309305191,-0.5730637907981873,-0.02615620382130146
1731409622524809200,4.297809326171875,-0.1251145601272583,-0.6498720049858093,0.054502420127391815
1731409622534830000,4.307830078125,-0.13235041499137878,-0.7368526458740234,0.11680968850851059
1731409622544850200,4.31785009765625,-0.26907071471214294,-0.9517534971237183,0.2063875049352646
1731409622554871000,4.32787109375,-0.2586638927459717,-1.0605592727661133,0.32990357279777527
1731409622564892200,4.33789208984375,-0.11737813800573349,-1.0293947458267212,0.38853520154953003
1731409622574912000,4.347912109375,0.04442428797483444,-0.8910354971885681,0.3311992287635803
1731409622584933000,4.35793310546875,0.14761511981487274,-0.7313164472579956,0.19521476328372955
1731409622594954000,4.3679541015625,0.1924300491809845,-0.5395092368125916,0.03340204432606697
1731409622604975600,4.3779755859375,0.20517514646053314,-0.35550424456596375,-0.10552122443914413
1731409622614995700,4.38799560546875,0.20897620916366577,-0.23197264969348907,-0.19419585168361664
1731409622625016600,4.3980166015625,0.2038690596818924,-0.15884651243686676,-0.2328825294971466
1731409622635037700,4.40803759765625,0.18000885844230652,-0.1115935742855072,-0.2505551278591156
1731409622645058600,4.41805859375,0.16142664849758148,-0.09556667506694794,-0.2692910134792328
1731409622655078700,4.42807861328125,0.1431400030851364,-0.11125189810991287,-0.2863280177116394
1731409622665099800,4.438099853515625,0.14946101605892181,-0.15455728769302368,-0.30599626898765564
1731409622675121000,4.448120849609375,0.1890539675951004,-0.15898726880550385,-0.32127171754837036
1731409622685141800,4.458141845703125,0.25121426582336426,-0.13546623289585114,-0.3385465741157532
1731409622695161900,4.468161865234375,0.25123053789138794,-0.0628041997551918,-0.3520423173904419
1731409622705182700,4.4781826171875,0.19906798005104065,0.025924868881702423,-0.3689139783382416
1731409622715203800,4.488203857421875,0.12861600518226624,0.08301638811826706,-0.38360896706581116
1731409622725223700,4.4982236328125,0.06537019461393356,0.07235974818468094,-0.38573551177978516
1731409622735244800,4.508244873046875,0.017237316817045212,0.028012122958898544,-0.3410373032093048
1731409622745265700,4.518265625,-0.021424857899546623,-0.021612420678138733,-0.2411719560623169
1731409622755286800,4.528286865234375,-0.06682562828063965,-0.04890482500195503,-0.11132270842790604
1731409622765306600,4.538306640625,-0.12986744940280914,0.0029945899732410908,0.020760225132107735
1731409622775327700,4.54832763671875,-0.19205732643604279,0.11865520477294922,0.10075236111879349
1731409622785348600,4.5583486328125,-0.24722257256507874,0.23591072857379913,0.10984785854816437
1731409622795368700,4.56836865234375,-0.29125985503196716,0.30517813563346863,0.07499437034130096
1731409622805389600,4.5783896484375,-0.3395722508430481,0.3490220308303833,0.03641742095351219
1731409622815411000,4.588410888671875,-0.372897207736969,0.3377726376056671,0.015189476311206818
1731409622825431800,4.598431884765625,-0.3840862214565277,0.28658056259155273,-0.01082294899970293
1731409622835452000,4.608451904296875,-0.4104296863079071,0.2119453400373459,-0.03167436271905899
1731409622845472800,4.61847265625,-0.4428744614124298,0.11030793190002441,-0.07175920158624649
1731409622855494000,4.628493896484375,-0.4725850224494934,0.03367180749773979,-0.10609155893325806
1731409622865514800,4.6385146484375,-0.5253015160560608,0.010847450233995914,-0.10679063946008682
1731409622875534800,4.648534912109375,-0.5849747657775879,-0.008233433589339256,-0.07211119681596756
1731409622885555700,4.6585556640625,-0.6266775131225586,-0.05005411431193352,-0.05903773754835129
1731409622895576800,4.668576904296875,-0.6464340090751648,-0.04780314490199089,-0.09102270752191544
1731409622905597700,4.67859765625,-0.6157245635986328,-0.0032892082817852497,-0.11829400807619095
1731409622915617800,4.68861767578125,-0.5594544410705566,0.014156760647892952,-0.08638691902160645
1731409622925638700,4.698638671875,-0.5079033970832825,-0.008877451531589031,0.014948757365345955
1731409622935659500,4.708659423828125,-0.48169225454330444,-0.08002366125583649,0.0826084315776825
1731409622945679600,4.7186796875,-0.46619531512260437,-0.16102078557014465,0.0405786857008934
1731409622955700700,4.72870068359375,-0.4470902681350708,-0.2606455683708191,-0.05288534238934517
1731409622965721900,4.738721923828125,-0.4168972074985504,-0.4062110185623169,-0.15200500190258026
1731409622975742700,4.74874267578125,-0.40382120013237,-0.551847517490387,-0.23124907910823822
1731409622985762800,4.7587626953125,-0.4096311628818512,-0.6119726300239563,-0.247628852725029
1731409622995783700,4.76878369140625,-0.41605910658836365,-0.6113161444664001,-0.19304421544075012
1731409623005804800,4.7788046875,-0.38913801312446594,-0.5556928515434265,-0.11583224684000015
1731409623015825700,4.78882568359375,-0.34763216972351074,-0.4530954360961914,-0.07771717756986618
1731409623025845800,4.798845703125,-0.3079047203063965,-0.36949455738067627,-0.09659552574157715
1731409623035866600,4.80886669921875,-0.29804426431655884,-0.34267717599868774,-0.14089956879615784
1731409623045887700,4.8188876953125,-0.2982165813446045,-0.3499090075492859,-0.1886599063873291
1731409623055907800,4.828907958984375,-0.30093541741371155,-0.37587153911590576,-0.22429029643535614
1731409623065928700,4.8389287109375,-0.31545257568359375,-0.40652719140052795,-0.24090203642845154
1731409623075949600,4.848949462890625,-0.3346390128135681,-0.43354544043540955,-0.23442985117435455
1731409623085970700,4.858970703125,-0.3523000478744507,-0.4468383491039276,-0.21963359415531158
1731409623095990800,4.86899072265625,-0.3461909890174866,-0.41113603115081787,-0.1807844042778015
1731409623106012000,4.879011962890625,-0.3240976929664612,-0.3465043008327484,-0.15251068770885468
1731409623116032800,4.88903271484375,-0.29112860560417175,-0.3018300235271454,-0.16529203951358795
1731409623126054000,4.899053955078125,-0.2445102483034134,-0.2846300005912781,-0.18756964802742004
1731409623136073700,4.90907373046875,-0.1971578150987625,-0.2746864855289459,-0.183988556265831
1731409623146094800,4.9190947265625,-0.16832216084003448,-0.2890808582305908,-0.1688905656337738
1731409623156115700,4.92911572265625,-0.14426493644714355,-0.28754475712776184,-0.14107288420200348
1731409623166135800,4.9391357421875,-0.11898168176412582,-0.2755275368690491,-0.11703997105360031
1731409623176156700,4.94915673828125,-0.09405869990587234,-0.23797814548015594,-0.09164881706237793
1731409623186177800,4.959177734375,-0.06536207348108292,-0.19968187808990479,-0.06788542866706848
1731409623196198700,4.96919873046875,-0.03634176030755043,-0.16387109458446503,-0.04261501878499985
1731409623206218800,4.97921875,-0.004687956999987364,-0.1290566474199295,-0.017099006101489067
1731409623216239600,4.989239501953125,0.04219702631235123,-0.07128863036632538,-0.00409503560513258
1731409623226260700,4.9992607421875,0.09261146187782288,-0.018666166812181473,0.01422591507434845
1731409623236281600,5.009281494140625,0.13319352269172668,0.023885689675807953,0.05805974826216698
1731409623246301700,5.0193017578125,0.1790427565574646,0.08162595331668854,0.14323721826076508
1731409623256322800,5.02932275390625,0.2389015406370163,0.1673758178949356,0.28291618824005127
1731409623266344000,5.039343994140625,0.3212571144104004,0.31581294536590576,0.39198729395866394
1731409623276363800,5.04936376953125,0.37009498476982117,0.4602275788784027,0.3696309030056
1731409623286385000,5.059385009765625,0.38007891178131104,0.48860570788383484,0.22920267283916473
1731409623296405800,5.06940576171875,0.372881144285202,0.4166809618473053,0.06714443862438202
1731409623306427000,5.079427001953125,0.35740044713020325,0.3377390205860138,-0.016349656507372856
1731409623316446700,5.08944677734375,0.3462682068347931,0.30277884006500244,-0.010128418914973736
1731409623326467800,5.0994677734375,0.3412702679634094,0.2846722900867462,0.020435880869627
1731409623336488700,5.10948876953125,0.3260664939880371,0.30734536051750183,0.03990472853183746
1731409623346509600,5.119509521484375,0.30115342140197754,0.32600080966949463,0.0681837722659111
1731409623356529700,5.12952978515625,0.2679876387119293,0.34054306149482727,0.13385719060897827
1731409623366550800,5.13955078125,0.24044175446033478,0.3817773163318634,0.20419339835643768
1731409623376571600,5.149571533203125,0.2314477562904358,0.4239460229873657,0.22972895205020905
1731409623386591700,5.159591796875,0.22986744344234467,0.44653043150901794,0.24047400057315826
1731409623396612600,5.169612548828125,0.22353358566761017,0.4528563618659973,0.2371883988380432
1731409623406633700,5.1796337890625,0.20175239443778992,0.44209665060043335,0.26990029215812683
1731409623416654800,5.18965478515625,0.16839377582073212,0.4193643033504486,0.31616854667663574
1731409623426675000,5.199675048828125,0.14001034200191498,0.37035760283470154,0.3668876588344574
1731409623436695800,5.20969580078125,0.1294993758201599,0.302348256111145,0.37063589692115784
1731409623446716700,5.219716552734375,0.12412618100643158,0.28901809453964233,0.34435659646987915
1731409623456737800,5.22973779296875,0.1094345673918724,0.2932334840297699,0.33265069127082825
1731409623466758000,5.2397578125,0.09329581260681152,0.315114289522171,0.3437190353870392
1731409623476778800,5.24977880859375,0.09835563600063324,0.34934768080711365,0.36452141404151917
1731409623486799600,5.259799560546875,0.11376814544200897,0.3411230444908142,0.36017513275146484
1731409623496819700,5.26981982421875,0.12535987794399261,0.30344122648239136,0.31431373953819275
1731409623506840800,5.2798408203125,0.12039415538311005,0.2713235020637512,0.2471354752779007
1731409623516861700,5.28986181640625,0.09492486715316772,0.2659401297569275,0.1756015121936798
1731409623526882600,5.299882568359375,0.06032214313745499,0.27748119831085205,0.11484282463788986
1731409623536902700,5.309902587890625,0.014246795326471329,0.2761693298816681,0.05392301827669144
1731409623546923500,5.319923583984375,-0.011213556863367558,0.24037592113018036,0.014004628174006939
1731409623556945000,5.32994482421875,-0.0071178521029651165,0.1798168271780014,0.003423349466174841
1731409623566965800,5.3399658203125,0.0106299864128232,0.10226478427648544,0.012816051952540874
1731409623576985900,5.34998583984375,0.016505923122167587,0.04533538594841957,0.021682964637875557
1731409623587006700,5.3600068359375,0.015011091716587543,0.03576558455824852,0.03687762841582298
1731409623597027800,5.37002783203125,0.023606177419424057,0.07615315914154053,0.023906072601675987
1731409623607048000,5.3800478515625,0.039242394268512726,0.1338321566581726,0.002452978165820241
1731409623617069000,5.390069091796875,0.06446602195501328,0.19853904843330383,-0.028055233880877495
1731409623627090200,5.400090087890625,0.08436409384012222,0.2440713793039322,-0.05328282713890076
1731409623637111300,5.410111328125,0.09001781046390533,0.25888553261756897,-0.06750303506851196
1731409623647131100,5.420131103515625,0.09539126604795456,0.26084697246551514,-0.06354105472564697
1731409623657152300,5.43015234375,0.09407798200845718,0.25825297832489014,-0.03717883303761482
1731409623667173000,5.440173095703125,0.09142547100782394,0.2348448634147644,-0.009255853481590748
1731409623677194200,5.4501943359375,0.09964901208877563,0.25588035583496094,0.0023782416246831417
1731409623687214000,5.460214111328125,0.12298709154129028,0.32233956456184387,0.005065371282398701
1731409623697235200,5.470235107421875,0.1372774988412857,0.3680097162723541,-0.007352720946073532
1731409623707256000,5.480256103515625,0.14300541579723358,0.3861357271671295,-0.03296247869729996
1731409623717276200,5.490276123046875,0.15363413095474243,0.3517572283744812,-0.06032506376504898
1731409623727297000,5.500297119140625,0.15972743928432465,0.28803685307502747,-0.08998335897922516
1731409623737318100,5.510318115234375,0.14709585905075073,0.22620482742786407,-0.10811373591423035
1731409623747339000,5.520339111328125,0.14201082289218903,0.1760615110397339,-0.12987655401229858
1731409623757359000,5.530359130859375,0.14393655955791473,0.12598329782485962,-0.1420198380947113
1731409623767380200,5.540380126953125,0.16213925182819366,0.09039067476987839,-0.13117411732673645
1731409623777401000,5.550401123046875,0.17980962991714478,0.09675496816635132,-0.10285300761461258
1731409623787422200,5.560422119140625,0.20419912040233612,0.11274458467960358,-0.05483461543917656
1731409623797442300,5.5704423828125,0.22017867863178253,0.12418386340141296,0.0006407798500731587
1731409623807463200,5.580463134765625,0.23614193499088287,0.1389516144990921,0.030517451465129852
1731409623817484000,5.590484130859375,0.26287907361984253,0.14464020729064941,0.04259743168950081
1731409623827504000,5.600504150390625,0.28165358304977417,0.12283104658126831,0.0607849583029747
1731409623837525200,5.610525146484375,0.29038727283477783,0.0964183434844017,0.1082104966044426
1731409623847546000,5.620546142578125,0.3009704351425171,0.09954889118671417,0.15835382044315338
1731409623857567000,5.63056689453125,0.323659211397171,0.12976817786693573,0.1933867186307907
1731409623867587000,5.640587158203125,0.3437972366809845,0.17978553473949432,0.17164546251296997
1731409623877608000,5.65060791015625,0.3444841802120209,0.22181154787540436,0.08485408127307892
1731409623887629000,5.660629150390625,0.3268798887729645,0.20731329917907715,-0.009028472937643528
1731409623897650200,5.670650146484375,0.293603777885437,0.1471051573753357,-0.06501942127943039
1731409623907670000,5.680669921875,0.24848583340644836,0.09029753506183624,-0.06303057074546814
1731409623917691100,5.690691162109375,0.2069750875234604,0.056440968066453934,-0.033418044447898865
1731409623927712300,5.700712158203125,0.18416698276996613,0.06509864330291748,0.0001353883126284927
1731409623937732000,5.710732177734375,0.16173890233039856,0.1070743203163147,0.02250993624329567
1731409623947753200,5.720753173828125,0.15636517107486725,0.14647285640239716,0.045221373438835144
1731409623957774000,5.730774169921875,0.13530601561069489,0.14635761082172394,0.06812025606632233
1731409623967795200,5.740795166015625,0.11966181546449661,0.1502612829208374,0.08934111893177032
1731409623977815000,5.75081494140625,0.08127684146165848,0.17236457765102386,0.14286427199840546
1731409623987836200,5.760836181640625,0.050815071910619736,0.17486795783042908,0.21800589561462402
1731409623997857000,5.77085693359375,0.037714630365371704,0.16414493322372437,0.28259989619255066
1731409624007878100,5.780878173828125,0.01697739213705063,0.11702002584934235,0.3021802604198456
1731409624017898000,5.79089794921875,-0.012271513231098652,0.06905543059110641,0.28335171937942505
1731409624027919000,5.800919189453125,-0.04666464030742645,0.030708039179444313,0.26487550139427185
1731409624037940000,5.81093994140625,-0.07267748564481735,0.001749892020598054,0.26258277893066406
1731409624047960000,5.8209599609375,-0.09036034345626831,-0.02309979684650898,0.2679740786552429
1731409624057981000,5.83098095703125,-0.10374076664447784,-0.03794804960489273,0.26291266083717346
1731409624068002300,5.841002197265625,-0.12166997045278549,-0.07061891257762909,0.2621512711048126
1731409624078023200,5.851023193359375,-0.17302849888801575,-0.09484695643186569,0.2746330499649048
1731409624088043300,5.861043212890625,-0.2265138328075409,-0.1283348798751831,0.28220388293266296
1731409624098064100,5.871064208984375,-0.20385466516017914,-0.15339700877666473,0.262970894575119
1731409624108085200,5.881085205078125,-0.12816497683525085,-0.16030950844287872,0.23284733295440674
1731409624118106000,5.891106201171875,-0.057550638914108276,-0.16760684549808502,0.18529237806797028
1731409624128126200,5.901126220703125,-0.009254743345081806,-0.1593150943517685,0.13781912624835968
1731409624138147000,5.91114697265625,0.0019520737696439028,-0.16476918756961823,0.10878792405128479
1731409624148168200,5.921168212890625,-0.0021060509607195854,-0.17174719274044037,0.08802112191915512
1731409624158188000,5.93118798828125,0.017729585990309715,-0.15146102011203766,0.06608400493860245
1731409624168209200,5.941209228515625,0.03293996676802635,-0.1403215527534485,0.03040776029229164
1731409624178230000,5.95122998046875,0.04706856980919838,-0.12073741108179092,-0.0014097248204052448
1731409624188251100,5.961251220703125,0.07066071033477783,-0.10661306977272034,-0.020336544141173363
1731409624198271000,5.97127099609375,0.08966092020273209,-0.10048646479845047,-0.020014801993966103
1731409624208292000,5.9812919921875,0.09673240780830383,-0.08578528463840485,-0.015132163651287556
1731409624218313200,5.991313232421875,0.11333875358104706,-0.06855463236570358,-0.010258563794195652
1731409624228334000,6.001333984375,0.13905955851078033,-0.05667506530880928,-0.01487941388040781
1731409624238354200,6.011354248046875,0.16129565238952637,-0.0379989854991436,-0.010586140677332878
1731409624248375300,6.021375244140625,0.1574266105890274,-0.011764184571802616,-0.026320628821849823
1731409624258396200,6.031396240234375,0.13892170786857605,0.0160466730594635,-0.04257524758577347
1731409624268416300,6.041416259765625,0.14034409821033478,0.03134067729115486,-0.0592503659427166
1731409624278437000,6.05143701171875,0.13853749632835388,0.026874355971813202,-0.06399676948785782
1731409624288458000,6.0614580078125,0.15085221827030182,0.007717438042163849,-0.0560712032020092
1731409624298479000,6.07147900390625,0.15647365152835846,-0.004602809902280569,-0.03766380622982979
1731409624308499200,6.081499267578125,0.15778020024299622,-0.028361136093735695,-0.02288113348186016
1731409624318520000,6.09152001953125,0.1488216519355774,-0.03403240814805031,-0.009526164270937443
1731409624328541000,6.101541015625,0.12478502094745636,-0.024622924625873566,-0.0009041802841238678
1731409624338561000,6.11156103515625,0.09851477295160294,-0.024998698383569717,0.008072612807154655
1731409624348582100,6.12158203125,0.07788965106010437,-0.026476752012968063,0.025948548689484596
1731409624358603300,6.131603271484375,0.06026139110326767,-0.02638493850827217,0.05803155526518822
1731409624368624000,6.1416240234375,0.04739086702466011,-0.019743546843528748,0.09495441615581512
1731409624378644200,6.151644287109375,0.03972090780735016,0.00038954935735091567,0.12992006540298462
1731409624388665000,6.1616650390625,0.02948584593832493,0.02750372514128685,0.15599560737609863
1731409624398686200,6.171686279296875,0.02115778625011444,0.03649954870343208,0.1744852513074875
1731409624408707000,6.18170703125,0.007258216384798288,0.03616798296570778,0.19251619279384613
1731409624418727200,6.19172705078125,-0.003993994556367397,0.020252536982297897,0.19509947299957275
1731409624428748000,6.201748046875,-0.007040384691208601,0.014516353607177734,0.20175445079803467
1731409624438769200,6.21176904296875,-0.008975614793598652,0.011882288381457329,0.20243503153324127
1731409624448789000,6.2217890625,-0.0083931814879179,0.02656242996454239,0.1956154704093933
1731409624458810000,6.23181005859375,-0.016086343675851822,0.04284333065152168,0.19591547548770905
1731409624468831000,6.2418310546875,-0.027468960732221603,0.06033284217119217,0.19738660752773285
1731409624478852000,6.25185205078125,-0.03322724997997284,0.06303635239601135,0.19284118711948395
1731409624488872000,6.261871826171875,-0.015037593431770802,0.05164681747555733,0.19712860882282257
1731409624498893000,6.27189306640625,-0.0030775999184697866,0.03883720561861992,0.18987338244915009
1731409624508914200,6.2819140625,0.019742760807275772,0.03960792347788811,0.17972195148468018
1731409624518935300,6.291935302734375,0.0408945307135582,0.05203763395547867,0.16634270548820496
1731409624528955100,6.301955078125,0.05359168350696564,0.06379441916942596,0.15607914328575134
1731409624538976300,6.311976318359375,0.0679023340344429,0.07792980968952179,0.15255548059940338
1731409624548997000,6.3219970703125,0.07052075117826462,0.0710628479719162,0.16582335531711578
1731409624559017200,6.332017333984375,0.08376982808113098,0.07346329092979431,0.188736692070961
1731409624569038000,6.3420380859375,0.10812097787857056,0.07724791020154953,0.21105530858039856
1731409624579059200,6.35205908203125,0.12993375957012177,0.10882441699504852,0.25337517261505127
1731409624589080000,6.362080078125,0.13616502285003662,0.11888610571622849,0.2611484229564667
1731409624599100200,6.37210009765625,0.13018925487995148,0.11448469758033752,0.2633286714553833
1731409624609120800,6.382120849609375,0.12366504967212677,0.09057138115167618,0.23750531673431396
1731409624619142000,6.392141845703125,0.12347555160522461,0.11332955211400986,0.22310644388198853
1731409624629162800,6.402162841796875,0.11831274628639221,0.12775802612304688,0.21924592554569244
1731409624639182800,6.412182861328125,0.107582688331604,0.12971724569797516,0.2390078604221344
1731409624649203700,6.42220361328125,0.09137974679470062,0.14063727855682373,0.2540754973888397
1731409624659224800,6.432224853515625,0.08162559568881989,0.14241565763950348,0.2446594089269638
1731409624669244700,6.44224462890625,0.0691649317741394,0.14194108545780182,0.21126097440719604
1731409624679265800,6.452265869140625,0.04665139690041542,0.14133001863956451,0.18792447447776794
1731409624689286700,6.46228662109375,0.020616870373487473,0.15921394526958466,0.19581808149814606
1731409624699307800,6.472307861328125,0.009741168469190598,0.1911703646183014,0.19957920908927917
1731409624709327600,6.48232763671875,0.01405735407024622,0.2120005339384079,0.2120465338230133
1731409624719349000,6.492348876953125,0.013396833091974258,0.1946716159582138,0.21698178350925446
1731409624729369900,6.502369873046875,0.007729892618954182,0.1878504604101181,0.21770162880420685
1731409624739391000,6.512390869140625,0.013985182158648968,0.19490890204906464,0.20079733431339264
1731409624749410800,6.522410888671875,0.031698666512966156,0.21286313235759735,0.18735823035240173
1731409624759432000,6.532431884765625,0.060315247625112534,0.2398802936077118,0.18100327253341675
1731409624769452800,6.542452880859375,0.10408882796764374,0.26319894194602966,0.17513872683048248
1731409624779473000,6.552472900390625,0.15150238573551178,0.2419460415840149,0.1692953109741211
1731409624789493800,6.56249365234375,0.1918591409921646,0.21417060494422913,0.16094070672988892
1731409624799515000,6.572514892578125,0.21966087818145752,0.21405436098575592,0.14972928166389465
1731409624809535700,6.58253564453125,0.25061801075935364,0.2577427327632904,0.11560992896556854
1731409624819555800,6.592555908203125,0.2979501187801361,0.3351825177669525,0.07575730979442596
1731409624829576700,6.60257666015625,0.33565568923950195,0.3955419957637787,0.06146173179149628
1731409624839597800,6.612597900390625,0.36842986941337585,0.4539390504360199,0.11190410703420639
1731409624849617700,6.62261767578125,0.4078843295574188,0.4760771095752716,0.1867399960756302
1731409624859638800,6.632638671875,0.44352632761001587,0.4622802734375,0.22307975590229034
1731409624869660000,6.642659912109375,0.46202704310417175,0.44963374733924866,0.21321354806423187
1731409624879680800,6.6526806640625,0.4514351189136505,0.46057265996932983,0.1561553180217743
1731409624889700900,6.662700927734375,0.4291103780269623,0.5125676393508911,0.08080331236124039
1731409624899722000,6.672721923828125,0.4175257384777069,0.582410454750061,0.01771729625761509
1731409624909742800,6.682742919921875,0.4140865206718445,0.6136557459831238,-0.013244880363345146
1731409624919763700,6.692763671875,0.4176337420940399,0.6102588176727295,-0.011134394444525242
1731409624929783800,6.70278369140625,0.4376295506954193,0.5876584053039551,0.01970580965280533
1731409624939804700,6.7128046875,0.46241429448127747,0.5697227716445923,0.062028758227825165
1731409624949825800,6.72282568359375,0.46963706612586975,0.556157112121582,0.09699340164661407
1731409624959846000,6.732845947265625,0.4505322277545929,0.5374282598495483,0.09006477892398834
1731409624969866800,6.74286669921875,0.3970343768596649,0.5242059230804443,0.0634603351354599
1731409624979887600,6.7528876953125,0.34142985939979553,0.48365461826324463,0.02922249399125576
1731409624989908700,6.76290869140625,0.27715152502059937,0.44691815972328186,0.007748094853013754
1731409624999928800,6.7729287109375,0.22906148433685303,0.44571614265441895,0.013908526860177517
1731409625009949700,6.78294970703125,0.21788179874420166,0.4867088496685028,0.05041087791323662
1731409625019970800,6.792970703125,0.2222023904323578,0.5201096534729004,0.09907621145248413
1731409625029992000,6.802991943359375,0.25459709763526917,0.5741196274757385,0.1522451639175415
1731409625040011800,6.81301171875,0.29816216230392456,0.6164345741271973,0.19233538210391998
1731409625050033000,6.823032958984375,0.339228093624115,0.608392596244812,0.2061886191368103
1731409625060053800,6.8330537109375,0.35722944140434265,0.580406904220581,0.20117388665676117
1731409625070073900,6.843073974609375,0.3480631113052368,0.5529638528823853,0.17454679310321808
1731409625080094700,6.8530947265625,0.3273606300354004,0.5011745095252991,0.13617850840091705
1731409625090115800,6.86311572265625,0.3012070655822754,0.4525430500507355,0.12944310903549194
1731409625100136700,6.87313671875,0.2702215909957886,0.41590115427970886,0.15130895376205444
1731409625110156800,6.88315673828125,0.24737031757831573,0.38564497232437134,0.19352750480175018
1731409625120177700,6.893177734375,0.22608590126037598,0.3458315134048462,0.24880865216255188
1731409625130198800,6.90319873046875,0.21052639186382294,0.362324982881546,0.31882208585739136
1731409625140219600,6.9132197265625,0.2021203190088272,0.4341121017932892,0.39160391688346863
1731409625150239700,6.92323974609375,0.21981889009475708,0.5340336561203003,0.47168517112731934
1731409625160260600,6.933260498046875,0.2661179304122925,0.623102068901062,0.5111940503120422
1731409625170282000,6.943281982421875,0.3382698893547058,0.6853534579277039,0.5097910761833191
1731409625180301800,6.9533017578125,0.39762142300605774,0.7390120625495911,0.47098174691200256
1731409625190323000,6.963322998046875,0.43039506673812866,0.7416331171989441,0.3993784189224243
1731409625200343800,6.97334375,0.43586739897727966,0.7134441137313843,0.30885520577430725
1731409625210365000,6.983364990234375,0.3975493013858795,0.6998617649078369,0.2289172261953354
1731409625220384800,6.993384765625,0.33300870656967163,0.6842948198318481,0.1854303628206253
1731409625230406000,7.003406005859375,0.2696121633052826,0.6882107257843018,0.1613716334104538
1731409625240426800,7.0134267578125,0.21842150390148163,0.6818768382072449,0.15334990620613098
1731409625250448000,7.02344775390625,0.16213905811309814,0.6816230416297913,0.14120136201381683
1731409625260467700,7.0334677734375,0.12271077185869217,0.7103153467178345,0.15647409856319427
1731409625270488800,7.04348876953125,0.09381680935621262,0.7104098796844482,0.16563405096530914
1731409625280509700,7.053509765625,0.06916709244251251,0.6685642004013062,0.1461830586194992
1731409625290530600,7.063530517578125,0.039401207119226456,0.6259003281593323,0.1268056333065033
1731409625300550700,7.073550537109375,0.004066861234605312,0.6379357576370239,0.12104416638612747
1731409625310572000,7.083572021484375,-0.030012013390660286,0.6162887811660767,0.1296597570180893
1731409625320593000,7.093593017578125,-0.05141039192676544,0.5603229999542236,0.13502733409404755
1731409625330613000,7.103613037109375,-0.07419107109308243,0.501423716545105,0.11116194725036621
1731409625340633900,7.1136337890625,-0.09241540729999542,0.43769344687461853,0.04890523850917816
1731409625350654700,7.12365478515625,-0.11379367113113403,0.37102067470550537,-0.024130089208483696
1731409625360675800,7.13367578125,-0.12847618758678436,0.29496610164642334,-0.07750630378723145
1731409625370696000,7.143696044921875,-0.12567266821861267,0.23344871401786804,-0.11856399476528168
1731409625380716800,7.153716796875,-0.1116546168923378,0.18649610877037048,-0.1379258930683136
1731409625390737700,7.163737548828125,-0.07975181192159653,0.14191851019859314,-0.15206514298915863
1731409625400757800,7.1737578125,-0.029258958995342255,0.11604104191064835,-0.1606883406639099
1731409625410779000,7.18377880859375,0.01661851815879345,0.12005149573087692,-0.14454825222492218
1731409625420799700,7.1937998046875,0.04068964719772339,0.12102441489696503,-0.12362871319055557
1731409625430820600,7.203820556640625,0.04781679809093475,0.11024447530508041,-0.10821273922920227
1731409625440840700,7.2138408203125,0.038803208619356155,0.05667506158351898,-0.10582109540700912
1731409625450861600,7.223861572265625,0.024056490510702133,-0.027502136304974556,-0.11084648221731186
1731409625460883000,7.233883056640625,0.011419347487390041,-0.0979953408241272,-0.13411347568035126
1731409625470903800,7.24390380859375,0.009442749433219433,-0.1481408029794693,-0.16400451958179474
1731409625480924000,7.253923828125,0.02272775024175644,-0.19273915886878967,-0.17386722564697266
1731409625490944800,7.26394482421875,0.0461886003613472,-0.27395254373550415,-0.1719691902399063
1731409625500966000,7.2739658203125,0.08212298899888992,-0.3332177698612213,-0.17240162193775177
1731409625510986800,7.28398681640625,0.12425526231527328,-0.3861180245876312,-0.1960241198539734
1731409625521006800,7.2940068359375,0.16507935523986816,-0.4495287537574768,-0.24769693613052368
1731409625531027700,7.30402783203125,0.1978548914194107,-0.5089457631111145,-0.31297314167022705
1731409625541048800,7.314048828125,0.2173895239830017,-0.5511313080787659,-0.35241448879241943
1731409625551068700,7.324068603515625,0.23015831410884857,-0.5923152565956116,-0.3642818033695221
1731409625561089800,7.33408984375,0.2529870867729187,-0.6518058180809021,-0.36697518825531006
1731409625571110700,7.344110595703125,0.2660996913909912,-0.7070432305335999,-0.3812606632709503
1731409625581131800,7.3541318359375,0.2622189521789551,-0.732864499092102,-0.41745129227638245
1731409625591151600,7.364151611328125,0.23803049325942993,-0.7575541734695435,-0.46728888154029846
1731409625601172700,7.3741728515625,0.20629680156707764,-0.7538290619850159,-0.5030074119567871
1731409625611193300,7.384193359375,0.1613897830247879,-0.7304581999778748,-0.5115281939506531
1731409625621214500,7.39421435546875,0.10350973904132843,-0.7153035998344421,-0.5087879300117493
1731409625631234300,7.404234375,0.05573928728699684,-0.7086930871009827,-0.5128892064094543
1731409625641255400,7.41425537109375,0.006453024689108133,-0.7331701517105103,-0.5404306054115295
1731409625651276300,7.4242763671875,-0.06031908094882965,-0.7752819061279297,-0.5813522338867188
1731409625661296400,7.43429638671875,-0.13311970233917236,-0.8167673349380493,-0.6177586317062378
1731409625671317200,7.444317138671875,-0.1911206841468811,-0.8270027041435242,-0.6272571086883545
1731409625681338400,7.45433837890625,-0.23139406740665436,-0.8281083703041077,-0.6182101964950562
1731409625691359200,7.464359130859375,-0.2536676824092865,-0.820983350276947,-0.602084755897522
1731409625701379300,7.47437939453125,-0.267993688583374,-0.7946041822433472,-0.5707164406776428
1731409625711400200,7.484400146484375,-0.2808871269226074,-0.7458014488220215,-0.526319682598114
1731409625721421600,7.494421630859375,-0.29718834161758423,-0.6813511252403259,-0.480025976896286
1731409625731442400,7.5044423828125,-0.31761717796325684,-0.6362534165382385,-0.44665098190307617
1731409625741462500,7.514462646484375,-0.34959352016448975,-0.6137208342552185,-0.4169415831565857
1731409625751483400,7.5244833984375,-0.3776587247848511,-0.6110712885856628,-0.3839913606643677
1731409625761504500,7.53450439453125,-0.40921685099601746,-0.6390008926391602,-0.34893620014190674
1731409625771524400,7.5445244140625,-0.4294973611831665,-0.6572568416595459,-0.30805400013923645
1731409625781545500,7.55454541015625,-0.444872111082077,-0.645341694355011,-0.2596833407878876
1731409625791566300,7.56456640625,-0.4580400884151459,-0.6087636947631836,-0.21658141911029816
1731409625801587500,7.57458740234375,-0.4617919623851776,-0.5637460947036743,-0.18184678256511688
1731409625811607300,7.584607177734375,-0.4506509006023407,-0.5141111612319946,-0.15686580538749695
1731409625821628400,7.59462841796875,-0.4376533031463623,-0.47461506724357605,-0.13055793941020966
1731409625831649300,7.604649169921875,-0.43529826402664185,-0.4413287341594696,-0.08705493807792664
1731409625841670400,7.61467041015625,-0.42498788237571716,-0.3916861414909363,-0.05594658479094505
1731409625851690200,7.624690185546875,-0.4038167893886566,-0.34222593903541565,-0.0397963747382164
1731409625861711400,7.63471142578125,-0.37589138746261597,-0.30698543787002563,-0.04920043796300888
1731409625871732500,7.644732421875,-0.3451358675956726,-0.26699888706207275,-0.06630192697048187
1731409625881752600,7.654752685546875,-0.3319236934185028,-0.21937742829322815,-0.044515132904052734
1731409625891773400,7.6647734375,-0.31578174233436584,-0.20012782514095306,0.0013796549756079912
1731409625901794600,7.674794677734375,-0.29385507106781006,-0.2171928435564041,0.03386381268501282
1731409625911815400,7.6848154296875,-0.26143908500671387,-0.21962377429008484,0.016095202416181564
1731409625921835500,7.69483544921875,-0.23023727536201477,-0.17088773846626282,0.00017687267973087728
1731409625931856400,7.7048564453125,-0.20228765904903412,-0.11111893504858017,0.005599601194262505
1731409625941877200,7.714877197265625,-0.1768195480108261,-0.044004544615745544,0.04165142774581909
1731409625951898400,7.7248984375,-0.14107805490493774,-0.012611469253897667,0.09203018248081207
1731409625961918500,7.73491845703125,-0.1181335598230362,-0.002876348327845335,0.09677083790302277
1731409625971939300,7.744939208984375,-0.09534329175949097,0.008709467016160488,0.05851719155907631
1731409625981960200,7.754960205078125,-0.09182244539260864,0.032960012555122375,0.01938229613006115
1731409625991980300,7.764980224609375,-0.10275738686323166,0.045775409787893295,0.018289068713784218
1731409626002001400,7.77500146484375,-0.11799640208482742,0.05450791120529175,0.04125601053237915
1731409626012022300,7.785022216796875,-0.1262868344783783,0.07385843992233276,0.06398475915193558
1731409626022043400,7.79504345703125,-0.1332879215478897,0.09205902367830276,0.08748280256986618
1731409626032063500,7.8050634765625,-0.1290966421365738,0.10847767442464828,0.10934815555810928
1731409626042084400,7.81508447265625,-0.12462430447340012,0.11463936418294907,0.1438719928264618
1731409626052105500,7.82510546875,-0.12975487112998962,0.12451115995645523,0.18363778293132782
1731409626062126300,7.835126220703125,-0.13824722170829773,0.1284102350473404,0.21172618865966797
1731409626072146400,7.845146484375,-0.14050452411174774,0.146038219332695,0.2228102684020996
1731409626082167300,7.855167236328125,-0.1360999196767807,0.18446485698223114,0.22845329344272614
1731409626092188400,7.8651884765625,-0.12358412891626358,0.19698810577392578,0.23833681643009186
1731409626102209300,7.875209228515625,-0.10571768879890442,0.21063001453876495,0.2517026662826538
1731409626112229400,7.8852294921875,-0.08867452293634415,0.240254208445549,0.2603358328342438
1731409626122250200,7.895250244140625,-0.06644884496927261,0.26370516419410706,0.25315558910369873
1731409626132271400,7.905271240234375,-0.04800992086529732,0.256391316652298,0.2547129988670349
1731409626142291200,7.915291259765625,-0.021870404481887817,0.25119468569755554,0.26030778884887695
1731409626152312300,7.925312255859375,-0.010199099779129028,0.2589801847934723,0.27240386605262756
1731409626162333400,7.93533349609375,0.0008507401798851788,0.2597511410713196,0.24998050928115845
1731409626172354600,7.9453544921875,0.010082588531076908,0.2708357274532318,0.21165549755096436
1731409626182374400,7.95537451171875,0.019000744447112083,0.2523670792579651,0.2076050043106079
1731409626192395500,7.9653955078125,0.017394592985510826,0.22411759197711945,0.22531822323799133
1731409626202416400,7.97541650390625,0.010714556090533733,0.22030940651893616,0.24350601434707642
1731409626212437500,7.9854375,0.004146134946495295,0.20850999653339386,0.2460501343011856
1731409626222457300,7.995457275390625,-0.013142190873622894,0.19003205001354218,0.24547652900218964
1731409626232478500,8.005478515625,-0.028126198798418045,0.1683160960674286,0.24260325729846954
1731409626242499300,8.015499267578125,-0.03271325305104256,0.15837305784225464,0.24137939512729645
1731409626252519400,8.02551953125,-0.03598121926188469,0.16137097775936127,0.23259815573692322
1731409626262540300,8.035540283203124,-0.05290217697620392,0.1642860770225525,0.22434721887111664
1731409626272561400,8.0455615234375,-0.06314629316329956,0.16157232224941254,0.22155968844890594
1731409626282582300,8.055582275390625,-0.06664876639842987,0.14705988764762878,0.2097255289554596
1731409626292602400,8.065602294921876,-0.07046694308519363,0.13422876596450806,0.19616179168224335
1731409626302623200,8.075623291015624,-0.07344473153352737,0.1213059201836586,0.18361906707286835
1731409626312644600,8.08564453125,-0.07786425203084946,0.10573121905326843,0.17566978931427002
1731409626322665500,8.09566552734375,-0.07881221920251846,0.08154093474149704,0.1516580432653427
1731409626332685600,8.105685546875,-0.08372894674539566,0.04604498669505119,0.1264839768409729
1731409626342706400,8.11570654296875,-0.094271220266819,0.009738244116306305,0.11351242661476135
1731409626352727300,8.125727294921875,-0.10969358682632446,-0.008788568899035454,0.09689483791589737
1731409626362748400,8.13574853515625,-0.12683692574501038,-0.01657538302242756,0.08401373773813248
1731409626372768500,8.1457685546875,-0.13748078048229218,-0.023460986092686653,0.07591213285923004
1731409626382789400,8.155789306640624,-0.15626788139343262,-0.02625630982220173,0.06851711869239807
1731409626392810200,8.165810302734375,-0.17366339266300201,-0.026432877406477928,0.05245746299624443
1731409626402830300,8.175830322265625,-0.1939287781715393,-0.04426473379135132,0.02762836404144764
1731409626412851500,8.1858515625,-0.21083079278469086,-0.05968550220131874,0.01758957840502262
1731409626422872300,8.195872314453124,-0.2391982525587082,-0.07450307160615921,0.0034681675024330616
1731409626432893200,8.20589306640625,-0.26397445797920227,-0.08919040113687515,-0.007357049733400345
1731409626442913300,8.215913330078125,-0.2919389009475708,-0.1068563461303711,-0.0008414441253989935
1731409626452934100,8.22593408203125,-0.31909647583961487,-0.13337105512619019,0.016547931358218193
1731409626462955500,8.23595556640625,-0.3391706645488739,-0.14237751066684723,0.03268333896994591
1731409626472976400,8.245976318359375,-0.3484560251235962,-0.13981954753398895,0.04721834138035774
1731409626482996500,8.25599658203125,-0.34402918815612793,-0.16011562943458557,0.061440255492925644
1731409626493017300,8.266017333984376,-0.3367587625980377,-0.1767643839120865,0.06683395802974701
1731409626503038500,8.27603857421875,-0.3454967439174652,-0.19011828303337097,0.05766252800822258
1731409626513059300,8.286059326171875,-0.3572671115398407,-0.18700052797794342,0.038975127041339874
1731409626523079400,8.296079345703125,-0.362837016582489,-0.18066099286079407,0.01536191999912262
1731409626533100300,8.306100341796874,-0.3608343005180359,-0.17290987074375153,0.004660540260374546
1731409626543121400,8.316121337890625,-0.3555507957935333,-0.1649419516324997,0.003111158963292837
1731409626553141200,8.326141357421875,-0.3419606685638428,-0.15056461095809937,0.003080799011513591
1731409626563162400,8.336162353515626,-0.32439109683036804,-0.1517711579799652,-0.008202786557376385
1731409626573183200,8.346183349609374,-0.3083583414554596,-0.14734338223934174,-0.008616109378635883
1731409626583204400,8.356204345703125,-0.2886720597743988,-0.12023093551397324,0.0058314865455031395
1731409626593224200,8.36622412109375,-0.28007805347442627,-0.1115114837884903,-0.001029881532303989
1731409626603245300,8.376245361328126,-0.2643420398235321,-0.14035898447036743,-0.008736780844628811
1731409626613270500,8.3862705078125,-0.24169690907001495,-0.16326801478862762,-0.028219668194651604
1731409626623291400,8.39629150390625,-0.22814525663852692,-0.14934222400188446,-0.04623672738671303
1731409626633311500,8.4063115234375,-0.21504463255405426,-0.12546272575855255,-0.03986538201570511
1731409626643332600,8.41633251953125,-0.19473837316036224,-0.1025179848074913,-0.012201575562357903
1731409626653353500,8.426353515625,-0.16946418583393097,-0.09249411523342133,0.011663809418678284
1731409626663373600,8.43637353515625,-0.1383858323097229,-0.08570698648691177,0.013837435282766819
1731409626673394400,8.44639453125,-0.11122158914804459,-0.0695357397198677,-0.016360146924853325
1731409626683415600,8.45641552734375,-0.09175201505422592,-0.05793973430991173,-0.04059934243559837
1731409626693436700,8.466436767578125,-0.07630488276481628,-0.048290569335222244,-0.043626025319099426
1731409626703456800,8.476456787109376,-0.06578758358955383,-0.04436713457107544,-0.03268857300281525
1731409626713477600,8.4864775390625,-0.06707069277763367,-0.03155546635389328,-0.033822279423475266
1731409626723498500,8.49649853515625,-0.07259772717952728,-0.02942739799618721,-0.05166591703891754
1731409626733519600,8.50651953125,-0.08798840641975403,-0.04051520302891731,-0.06979139149188995
1731409626743539500,8.51653955078125,-0.12128614634275436,-0.053350310772657394,-0.08366692811250687
1731409626753560600,8.526560546875,-0.15104565024375916,-0.06270013749599457,-0.08611676841974258
1731409626763581400,8.53658154296875,-0.1742662787437439,-0.09052770584821701,-0.08133230358362198
1731409626773602600,8.5466025390625,-0.18569229543209076,-0.10559027642011642,-0.056638944894075394
1731409626783622400,8.556622314453126,-0.1825249195098877,-0.1207674965262413,-0.020535824820399284
1731409626793643500,8.5666435546875,-0.18275101482868195,-0.11596768349409103,0.017069341614842415
1731409626803664400,8.576664306640625,-0.18401946127414703,-0.09499701857566833,0.04661617800593376
1731409626813684500,8.5866845703125,-0.18696144223213196,-0.079630047082901,0.05865180492401123
1731409626823705300,8.596705322265626,-0.18688258528709412,-0.05551745742559433,0.05313987657427788
1731409626833726700,8.606726806640625,-0.18822987377643585,-0.046403322368860245,0.049446072429418564
1731409626843747600,8.61674755859375,-0.19482797384262085,-0.03678391873836517,0.03778209164738655
1731409626853767700,8.626767578125,-0.19936254620552063,-0.0059522343799471855,0.038536831736564636
1731409626863788500,8.63678857421875,-0.19874750077724457,-0.004710070788860321,0.030637303367257118
1731409626873809700,8.6468095703125,-0.1905854493379593,-0.02925056591629982,0.016011755913496017
1731409626883830500,8.65683056640625,-0.18274468183517456,-0.03373073786497116,0.0322401225566864
1731409626893850600,8.6668505859375,-0.16468019783496857,-0.04004456102848053,0.04963189363479614
1731409626903871500,8.67687158203125,-0.15071949362754822,-0.0428474023938179,0.05768498778343201
1731409626913892600,8.686892578125,-0.14181281626224518,-0.03888648375868797,0.0642976239323616
1731409626923912400,8.696912353515625,-0.13328488171100616,-0.030677955597639084,0.06303741782903671
1731409626933933600,8.70693359375,-0.12484052032232285,-0.039240818470716476,0.06552587449550629
1731409626943954400,8.716954345703124,-0.1267562061548233,-0.039024099707603455,0.07571898400783539
1731409626953975600,8.7269755859375,-0.11833077669143677,-0.03735376521945,0.08954717963933945
1731409626963995400,8.736995361328125,-0.10768242180347443,-0.03573143482208252,0.09442566335201263
1731409626974016500,8.7470166015625,-0.09193701297044754,-0.03569228574633598,0.09433724731206894
1731409626984037600,8.75703759765625,-0.08517622947692871,-0.032748762518167496,0.08547472953796387
1731409626994058500,8.76705859375,-0.08022061735391617,-0.029193708673119545,0.05877840146422386
1731409627004078600,8.77707861328125,-0.07283821702003479,-0.020050277933478355,0.0289112851023674
1731409627014099700,8.787099609375,-0.07630085945129395,-0.005237244069576263,-0.002443175995722413
1731409627024120600,8.79712060546875,-0.07667535543441772,0.0003571967827156186,-0.023233627900481224
1731409627034141400,8.807141357421875,-0.07392857223749161,0.0068430593237280846,-0.037488728761672974
1731409627044161500,8.81716162109375,-0.06261632591485977,0.007003509905189276,-0.037837255746126175
1731409627054182700,8.8271826171875,-0.04480936378240585,0.009395561181008816,-0.03889772668480873
1731409627064203500,8.83720361328125,-0.035911981016397476,0.012023168615996838,-0.04914504289627075
1731409627074223600,8.8472236328125,-0.0334743894636631,0.01831781677901745,-0.0590224415063858
1731409627084244500,8.857244384765625,-0.04028427228331566,0.011071089655160904,-0.0657719075679779
1731409627094265300,8.867265380859376,-0.05406026914715767,0.0038102469407022,-0.0626554787158966
1731409627104286500,8.877286376953125,-0.05792774260044098,-0.006545455195009708,-0.05189690366387367
1731409627114306600,8.887306640625,-0.05258277803659439,-0.029853174462914467,-0.025037594139575958
1731409627124327700,8.89732763671875,-0.05037469044327736,-0.04416054114699364,0.012102736160159111
1731409627134348500,8.9073486328125,-0.04443850368261337,-0.045774150639772415,0.034328412264585495
1731409627144369700,8.91736962890625,-0.029438307508826256,-0.03882110118865967,0.039824228733778
1731409627154389500,8.927389404296875,-0.013869734480977058,-0.0346284881234169,0.041298020631074905
1731409627164410600,8.93741064453125,0.0015551173128187656,-0.0262276791036129,0.0407445915043354
1731409627174431500,8.947431396484374,0.01846778765320778,-0.013302026316523552,0.021925097331404686
1731409627184452600,8.95745263671875,0.030980445444583893,-0.019698405638337135,0.0035303637851029634
1731409627194472400,8.967472412109375,0.04203895479440689,-0.02675631456077099,0.015791822224855423
1731409627204493600,8.97749365234375,0.04689282923936844,-0.03120206668972969,0.034456390887498856
1731409627214514400,8.987514404296874,0.055004019290208817,-0.02487625926733017,0.04151589795947075
1731409627224534500,8.997534423828125,0.0660678818821907,-0.015110314823687077,0.03073940798640251
1731409627234555400,9.007555419921875,0.07622278481721878,-0.011248731054365635,0.015474701300263405
1731409627244576500,9.017576416015626,0.08516547083854675,0.018126411363482475,0.0388341061770916
1731409627254597400,9.027597412109374,0.1000426858663559,0.05516565591096878,0.060468293726444244
1731409627264617500,9.037617431640625,0.1017388254404068,0.07382641732692719,0.03924510255455971
1731409627274638600,9.047638671875,0.08872289210557938,0.06272343546152115,-0.0007164274575188756
1731409627284659700,9.05765966796875,0.07039514183998108,0.03246259689331055,-0.059180766344070435
1731409627294680600,9.0676806640625,0.04727676883339882,0.015158708207309246,-0.10221558064222336
1731409627304700700,9.07770068359375,0.03409072011709213,0.01513174269348383,-0.10257256031036377
1731409627314721500,9.087721435546875,0.012146270833909512,0.007504184264689684,-0.07616385817527771
1731409627324742700,9.09774267578125,-0.0004110363661311567,0.011015428230166435,-0.07092942297458649
1731409627334763500,9.107763427734374,-0.005538686644285917,0.015051448717713356,-0.07570580393075943
1731409627344783600,9.11778369140625,-0.008542376570403576,0.007368963677436113,-0.07319755852222443
1731409627354804500,9.127804443359375,-0.012622606009244919,0.0006567328236997128,-0.05872434377670288
1731409627364825600,9.13782568359375,-0.013257710263133049,-0.0011337778996676207,-0.045129287987947464
1731409627374845400,9.147845458984374,-0.022302070632576942,-0.01094379834830761,-0.02771141566336155
1731409627384866600,9.157866455078125,-0.03125547245144844,-0.013891584239900112,-0.008186319842934608
1731409627394887400,9.167887451171875,-0.037363965064287186,-0.01080924179404974,-0.0013300123391672969
1731409627404908500,9.177908447265626,-0.042306289076805115,-0.019464781507849693,0.007077130954712629
1731409627414928400,9.187928466796874,-0.05785222724080086,-0.040848102420568466,0.012055111117661
1731409627424949800,9.19794970703125,-0.07076642662286758,-0.05077410116791725,0.021825648844242096
1731409627434970600,9.207970703125,-0.08058124035596848,-0.06996563822031021,0.01914997026324272
1731409627444991500,9.217991455078124,-0.09607201814651489,-0.08375262469053268,0.019866717979311943
1731409627455011600,9.228011474609374,-0.10996945202350616,-0.09733740985393524,0.03483182191848755
1731409627465032700,9.23803271484375,-0.12398475408554077,-0.10234155505895615,0.05273798853158951
1731409627475053600,9.248053466796875,-0.13083840906620026,-0.10163448750972748,0.07299584895372391
1731409627485074400,9.258074462890624,-0.12807288765907288,-0.09260670840740204,0.08753160387277603
1731409627495094500,9.268094482421875,-0.1256486177444458,-0.09264319390058517,0.10041650384664536
1731409627505115400,9.278115478515625,-0.11216916888952255,-0.09697195142507553,0.1063966378569603
1731409627515136500,9.288136474609376,-0.10400684922933578,-0.07596147805452347,0.12289358675479889
1731409627525156600,9.298156494140626,-0.10401761531829834,-0.07355411350727081,0.11746243387460709
1731409627535177500,9.308177490234375,-0.10222424566745758,-0.08695301413536072,0.08968566358089447
1731409627545198300,9.3181982421875,-0.10303275287151337,-0.08135757595300674,0.07592776417732239
1731409627555219700,9.3282197265625,-0.0990515947341919,-0.07764086872339249,0.07043686509132385
1731409627565239600,9.338239501953124,-0.08497054129838943,-0.08473759144544601,0.06786765158176422
1731409627575260700,9.3482607421875,-0.06665172427892685,-0.09404401481151581,0.0861518457531929
1731409627585281500,9.358281494140625,-0.047797609120607376,-0.09874528646469116,0.11461544781923294
1731409627595302700,9.368302734375,-0.024075767025351524,-0.09681636095046997,0.12690193951129913
1731409627605322500,9.378322509765624,-0.00505348714068532,-0.08939745277166367,0.1347067654132843
1731409627615343400,9.38834326171875,0.011549989692866802,-0.0760188028216362,0.14322568476200104
1731409627625364200,9.3983642578125,0.022503186017274857,-0.047186948359012604,0.13502374291419983
1731409627635385300,9.40838525390625,0.03011450171470642,-0.02452664263546467,0.0987861156463623
1731409627645405200,9.4184052734375,0.028472188860177994,-0.019986959174275398,0.04852369427680969
1731409627655426300,9.42842626953125,0.018568426370620728,-0.034112900495529175,0.0032337098382413387
1731409627665447400,9.438447509765625,0.005771552212536335,-0.06383583694696426,-0.025574639439582825
1731409627675467500,9.448467529296876,-0.003457632614299655,-0.08939233422279358,-0.044408515095710754
1731409627685488400,9.45848828125,0.0021679101046174765,-0.09520974010229111,-0.059315260499715805
1731409627695509500,9.468509521484375,0.00872541218996048,-0.10034378618001938,-0.06496356427669525
1731409627705530400,9.4785302734375,0.020665515214204788,-0.10675641149282455,-0.0566382072865963
1731409627715550500,9.488550537109376,0.03128700330853462,-0.09436578303575516,-0.05509224161505699
1731409627725571300,9.4985712890625,0.04042120277881622,-0.07992798835039139,-0.04581307992339134
1731409627735592400,9.508592529296875,0.04443538561463356,-0.07510101050138474,-0.01981183886528015
1731409627745613300,9.51861328125,0.041538722813129425,-0.06805948168039322,0.00020985762239433825
1731409627755633400,9.52863330078125,0.03658284619450569,-0.05875546485185623,0.007967378944158554
1731409627765654300,9.538654296875,0.026730569079518318,-0.0573052354156971,0.011849979870021343
1731409627775675400,9.54867529296875,0.00944558996707201,-0.057061824947595596,0.010971935465931892
1731409627785696300,9.5586962890625,-0.005033634137362242,-0.06239527091383934,0.0010129836155101657
1731409627795716400,9.56871630859375,-0.024018775671720505,-0.06317158043384552,-0.01627332717180252
1731409627805737200,9.5787373046875,-0.042408816516399384,-0.07018528133630753,-0.028535960242152214
1731409627815758600,9.588758544921875,-0.05484258383512497,-0.06764089316129684,-0.03569134324789047
1731409627825778400,9.5987783203125,-0.07377653568983078,-0.06100010871887207,-0.032011765986680984
1731409627835799600,9.608799560546874,-0.08507899194955826,-0.040209077298641205,-0.03445255383849144
1731409627845820400,9.6188203125,-0.0923008918762207,-0.019006317481398582,-0.047468770295381546
1731409627855841300,9.62884130859375,-0.08878525346517563,-0.002885936526581645,-0.0321369506418705
1731409627865861400,9.638861328125,-0.09092767536640167,0.0005066039157100022,0.024724015966057777
1731409627875882500,9.648882568359374,-0.08271422237157822,0.015538549982011318,0.03563205525279045
1731409627885903400,9.6589033203125,-0.08179309964179993,0.035738151520490646,0.04514431953430176
1731409627895924200,9.66892431640625,-0.08459341526031494,0.03184434399008751,0.04013597592711449
1731409627905944300,9.6789443359375,-0.08766314387321472,0.04494543373584747,0.017988938838243484
1731409627915965400,9.68896533203125,-0.0885409265756607,0.05655894801020622,0.025164293125271797
1731409627925986300,9.698986328125,-0.07453539222478867,0.07581420242786407,0.08391539752483368
1731409627936007200,9.709007080078125,-0.06449713557958603,0.06885189563035965,0.13565528392791748
1731409627946027300,9.71902734375,-0.04827401787042618,0.05435238406062126,0.13910554349422455
1731409627956048400,9.72904833984375,-0.03712921962141991,0.05109800398349762,0.13283085823059082
1731409627966069500,9.739069580078125,-0.02568165212869644,0.05188143625855446,0.13526801764965057
1731409627976089600,9.749089599609375,-0.005146283656358719,0.06388723850250244,0.15368057787418365
1731409627986110500,9.7591103515625,0.008724465034902096,0.084590844810009,0.1584094762802124
1731409627996131300,9.76913134765625,0.012955961748957634,0.10598455369472504,0.13184817135334015
1731409628006152400,9.77915234375,0.011120924726128578,0.11853137612342834,0.08146699517965317
1731409628016172300,9.78917236328125,0.0022235705982893705,0.10271299630403519,0.03850087895989418
1731409628026193400,9.799193359375,-0.006619277875870466,0.07683366537094116,0.014073156751692295
1731409628036214300,9.80921435546875,-0.01366493757814169,0.056130509823560715,-0.007830810733139515
1731409628046235400,9.8192353515625,-0.02289503999054432,0.0457170195877552,-0.029043391346931458
1731409628056255200,9.829255126953125,-0.02235814742743969,0.034174878150224686,-0.037888817489147186
1731409628066276400,9.8392763671875,-0.02226898819208145,0.02738814428448677,-0.035431135445833206
1731409628076297200,9.849297119140624,-0.014819328673183918,0.01884445734322071,-0.027376139536499977
1731409628086318600,9.859318603515625,-0.009224115870893002,0.02128084935247898,-0.015125840902328491
1731409628096338200,9.869338134765625,-0.007331141736358404,0.01964540220797062,0.00277379690669477
1731409628106359600,9.879359619140626,-0.004427763167768717,0.012717721983790398,0.024374162778258324
1731409628116380400,9.88938037109375,-0.003031734377145767,0.006541319191455841,0.03218734636902809
1731409628126400500,9.899400390625,0.0028491762932389975,0.011960518546402454,0.048318248242139816
1731409628136421400,9.90942138671875,0.004324301145970821,0.0013528817798942327,0.04011251777410507
1731409628146442500,9.9194423828125,0.0016687449533492327,-0.012750353664159775,0.019432667642831802
1731409628156463400,9.92946337890625,-0.0007022672798484564,-0.02446107193827629,0.013715927489101887
1731409628166483500,9.9394833984375,0.002771205734461546,-0.03775743395090103,0.015895679593086243
1731409628176504300,9.94950439453125,0.00589509354904294,-0.044516004621982574,0.0238228440284729
1731409628186525400,9.959525390625,0.014512076042592525,-0.04970717430114746,0.028012048453092575
1731409628196546300,9.96954638671875,0.023317284882068634,-0.04186895862221718,0.01853918470442295
1731409628206566400,9.97956640625,0.029258087277412415,-0.025435591116547585,0.004115915857255459
1731409628216587300,9.989587158203125,0.032214462757110596,-0.01235094666481018,-0.007377222180366516
1731409628226608400,9.9996083984375,0.029622703790664673,-0.004815399181097746,-0.023402800783514977
1731409628236629500,10.00962939453125,0.030482104048132896,-0.00011438713409006596,-0.02866227738559246
1731409628246649300,10.0196494140625,0.031453363597393036,-0.00446332897990942,-0.016827723011374474
1731409628256670500,10.02967041015625,0.03014974296092987,-0.00813529547303915,-0.00015367145533673465
1731409628266691300,10.03969140625,0.029526237398386,-0.016950424760580063,0.013365250080823898
1731409628276711400,10.04971142578125,0.024023881182074547,-0.021238647401332855,0.02042502351105213
1731409628286732500,10.059732666015625,0.024480849504470825,-0.017884522676467896,0.030228257179260254
1731409628296753400,10.06975341796875,0.026535745710134506,-0.02121427282691002,0.03605658560991287
1731409628306774300,10.079774169921874,0.026954540982842445,-0.026736410334706306,0.04754938557744026
1731409628316794400,10.08979443359375,0.025077546015381813,-0.03188430145382881,0.050694845616817474
1731409628326815500,10.0998154296875,0.02669142186641693,-0.03602897748351097,0.035904448479413986
1731409628336836400,10.10983642578125,0.017278743907809258,-0.04449889436364174,0.015995722264051437
1731409628346857200,10.119857177734374,0.01718023791909218,-0.0495108999311924,-0.0010374300181865692
1731409628356877300,10.129877197265625,0.013256070204079151,-0.0655018538236618,-0.015314370393753052
1731409628366898200,10.139898193359375,0.014326305128633976,-0.06650439649820328,-0.017141275107860565
1731409628376919300,10.149919189453126,0.016772152855992317,-0.06247396767139435,-0.025503335520625114
1731409628386939400,10.159939453125,0.019777826964855194,-0.056727129966020584,-0.03486894816160202
1731409628396960300,10.169960205078125,0.024224240332841873,-0.04832538962364197,-0.03251258283853531
1731409628406981400,10.1799814453125,0.02963794209063053,-0.041982006281614304,-0.02563304640352726
1731409628417002500,10.19000244140625,0.03419860452413559,-0.03029499389231205,-0.024701472371816635
1731409628427022300,10.200022216796874,0.03488043695688248,-0.009997643530368805,-0.035916492342948914
1731409628437043500,10.21004345703125,0.03458695486187935,-0.004480105824768543,-0.061140090227127075
1731409628447064300,10.220064208984375,0.01845737174153328,0.0040656449273228645,-0.05993407219648361
1731409628457085400,10.23008544921875,0.001270129345357418,0.0017436349298804998,-0.050387438386678696
1731409628467105300,10.240105224609374,-0.009447170421481133,-0.022961778566241264,-0.054050199687480927
1731409628477126400,10.25012646484375,-0.016185767948627472,-0.04091601073741913,-0.09426978975534439
1731409628487147300,10.260147216796875,-0.028548486530780792,-0.03631792590022087,-0.10922136157751083
1731409628497168400,10.27016845703125,-0.03813639655709267,-0.023724637925624847,-0.08732139319181442
1731409628507188200,10.280188232421875,-0.04917532205581665,-0.008776651695370674,-0.036340564489364624
1731409628517209300,10.290209228515625,-0.06452364474534988,-0.01578502543270588,-0.009398432448506355
1731409628527230200,10.300230224609376,-0.07005802541971207,-0.019305923953652382,-0.009886474348604679
1731409628537250300,10.310250244140626,-0.08004222065210342,-0.0183250829577446,-0.022115711122751236
1731409628547271400,10.320271484375,-0.09263478964567184,-0.02035241387784481,-0.02822178415954113
1731409628557292500,10.33029248046875,-0.10583368688821793,-0.027175966650247574,-0.01949513703584671
1731409628567313400,10.3403134765625,-0.11139729619026184,-0.03341362252831459,-0.009014267474412918
1731409628577333500,10.35033349609375,-0.11326310783624649,-0.020451484248042107,0.009163138456642628
1731409628587354400,10.360354248046875,-0.11927605420351028,-0.0020728735253214836,0.02268289029598236
1731409628597375500,10.37037548828125,-0.1253877431154251,0.0138959726318717,0.03135307505726814
1731409628607393300,10.380393310546875,-0.13039009273052216,0.019022423774003983,0.032378166913986206
1731409628617413400,10.390413330078125,-0.12780629098415375,0.02268107421696186,0.02956320345401764
1731409628627434200,10.400434326171874,-0.1348578929901123,0.019922176375985146,0.031082484871149063
1731409628637455000,10.410455078125,-0.1414707750082016,0.015989486128091812,0.037657562643289566
1731409628647476200,10.420476318359375,-0.15368415415287018,0.011930224485695362,0.05346042662858963
1731409628657496300,10.430496337890625,-0.16348645091056824,0.003507445566356182,0.0703350156545639
1731409628667517200,10.44051708984375,-0.16837260127067566,0.001968343975022435,0.0848788470029831
1731409628677538000,10.4505380859375,-0.16518187522888184,-0.0010924270609393716,0.09445663541555405
1731409628687558100,10.46055810546875,-0.16080571711063385,0.0005080641130916774,0.09858603030443192
1731409628697579300,10.470579345703126,-0.15907998383045197,0.006650378927588463,0.10157143324613571
1731409628707600400,10.480600341796874,-0.1633024513721466,0.011124951764941216,0.0781872496008873
1731409628717621200,10.490621337890625,-0.16634458303451538,0.018513092771172523,0.03351485729217529
1731409628727641300,10.500641357421875,-0.1703677922487259,0.030848786234855652,-0.0010193281341344118
1731409628737662200,10.510662109375,-0.16725482046604156,0.027326224371790886,-0.025992587208747864
1731409628747683300,10.520683349609374,-0.16124090552330017,0.025352824479341507,-0.03223176300525665
1731409628757704200,10.5307041015625,-0.15842300653457642,0.021957825869321823,-0.035080015659332275
1731409628767724300,10.540724365234375,-0.15132121741771698,0.015738146379590034,-0.039096649736166
1731409628777745200,10.5507451171875,-0.13206976652145386,0.013903227634727955,-0.03941277042031288
1731409628787766300,10.560766357421874,-0.11888175457715988,0.015220360830426216,-0.037950336933135986
1731409628797787100,10.570787109375,-0.10630471259355545,0.003047051839530468,-0.02850916050374508
1731409628807807200,10.58080712890625,-0.08910924196243286,-0.003558918833732605,-0.015306464396417141
1731409628817828000,10.590828125,-0.07767389714717865,-0.006787202786654234,-0.01018387358635664
1731409628827849200,10.60084912109375,-0.06780176609754562,-0.004998557735234499,-0.013061336241662502
1731409628837869000,10.610869140625,-0.06428319960832596,0.0015022179577499628,-0.020011918619275093
1731409628847890200,10.62089013671875,-0.05758262798190117,0.015903662890195847,-0.01937670260667801
1731409628857911300,10.630911376953126,-0.052979353815317154,0.01838093437254429,-0.017825942486524582
1731409628867932400,10.640932373046875,-0.04313014820218086,0.011842675507068634,-0.019342856481671333
1731409628877952300,10.6509521484375,-0.03318111225962639,0.010830674320459366,-0.020904267206788063
1731409628887973400,10.660973388671875,-0.02209949493408203,0.01117189321666956,-0.026836877688765526
1731409628897994200,10.670994140625,-0.01703522726893425,0.005267932079732418,-0.03167317807674408
1731409628908015400,10.681015380859375,-0.010065112262964249,0.01035989262163639,-0.039233315736055374
1731409628918035200,10.69103515625,-0.004575006198137999,0.0063992394134402275,-0.04070737585425377
1731409628928056300,10.701056396484375,-0.0025028600357472897,-0.0025583035312592983,-0.04297211393713951
1731409628938077200,10.7110771484375,0.0021885645110160112,-0.0027686930261552334,-0.04520038142800331
1731409628948098300,10.721098388671875,0.007716250140219927,0.0028652907349169254,-0.055945008993148804
1731409628958118100,10.7311181640625,0.007300797384232283,0.010387122631072998,-0.059329885989427567
1731409628968139300,10.74113916015625,0.00795418955385685,0.02209697663784027,-0.058148372918367386
1731409628978160000,10.75116015625,0.01385202631354332,0.03255361318588257,-0.05714862421154976
1731409628988180200,10.76118017578125,0.01544646080583334,0.026687268167734146,-0.05214524269104004
1731409628998201000,10.771201171875,0.017801493406295776,0.02249598503112793,-0.0472162626683712
1731409629008222500,10.781222412109376,0.0201881006360054,0.014575809240341187,-0.05605223402380943
1731409629018243300,10.791243408203124,0.01633264310657978,0.010451105423271656,-0.08596432954072952
1731409629028263400,10.801263427734375,0.0139363594353199,0.0017122747376561165,-0.11458489298820496
1731409629038284300,10.8112841796875,-0.0014684295747429132,0.001833448652178049,-0.08818231523036957
1731409629048305200,10.82130517578125,-0.001602150034159422,0.0059881131164729595,-0.05639774724841118
1731409629058326300,10.831326171875,-0.000929968198761344,0.0020469012670218945,-0.05193828418850899
1731409629068346400,10.841346435546875,0.0029627156909555197,-0.009573469869792461,-0.06912514567375183
1731409629078367200,10.8513671875,0.007055194582790136,-0.008412864059209824,-0.09318307787179947
1731409629088388000,10.86138818359375,-0.0008382669184356928,0.005684047006070614,-0.09979248046875
1731409629098408200,10.871408203125,-0.008874088525772095,0.01688503473997116,-0.07729808986186981
1731409629108429300,10.88142919921875,-0.01026594452559948,0.026848986744880676,-0.05663786455988884
1731409629118450200,10.8914501953125,-0.012664387002587318,0.033895447850227356,-0.06222917139530182
1731409629128471000,10.901470947265626,-0.016646435484290123,0.037992581725120544,-0.07720277458429337
1731409629138491100,10.9114912109375,-0.02239566668868065,0.04255431145429611,-0.0894559770822525
1731409629148512300,10.92151220703125,-0.018559472635388374,0.03494153544306755,-0.08653819561004639
1731409629158533400,10.931533447265625,-0.017527498304843903,0.02831132896244526,-0.07375315576791763
1731409629168554200,10.94155419921875,-0.014406036585569382,0.02925901487469673,-0.06330929696559906
1731409629178574300,10.95157421875,-0.006745720747858286,0.043258186429739,-0.05541089177131653
1731409629188595200,10.96159521484375,0.002270293654873967,0.06598760187625885,-0.056861553341150284
1731409629198616300,10.9716162109375,0.008706089109182358,0.06857885420322418,-0.04373430088162422
1731409629208636200,10.98163623046875,0.01695454679429531,0.06346352398395538,-0.026868294924497604
1731409629218657300,10.9916572265625,0.030328674241900444,0.06114897131919861,-0.019515840336680412
1731409629228678100,11.00167822265625,0.034129925072193146,0.059481430798769,-0.016243182122707367
1731409629238699300,11.01169921875,0.042247507721185684,0.06656118482351303,-0.015271926298737526
1731409629248719000,11.021718994140626,0.043852269649505615,0.07885106652975082,-0.017040083184838295
1731409629258740200,11.031740234375,0.04913518205285072,0.08612868189811707,-0.021244682371616364
1731409629268761000,11.041760986328125,0.049864765256643295,0.08865782618522644,-0.027450447902083397
1731409629278782500,11.051782470703126,0.04855635389685631,0.08452966064214706,-0.04041684418916702
1731409629288802000,11.061802001953126,0.04295380413532257,0.0754423514008522,-0.06045602262020111
1731409629298823400,11.071823486328125,0.03742162138223648,0.07520080357789993,-0.06768650561571121
1731409629308844300,11.08184423828125,0.026060251519083977,0.06521322578191757,-0.07222574949264526
1731409629318865400,11.091865478515626,0.02300347574055195,0.04857352375984192,-0.0840752124786377
1731409629328885200,11.10188525390625,0.023895664140582085,0.047876905649900436,-0.07967658340930939
1731409629338906400,11.11190625,0.030078459531068802,0.04157480224967003,-0.06155989691615105
1731409629348927200,11.12192724609375,0.03359377384185791,0.046678751707077026,-0.04781424254179001
1731409629358947300,11.131947265625,0.033015333116054535,0.05391402915120125,-0.03715360909700394
1731409629368968200,11.14196826171875,0.037273433059453964,0.05955160781741142,-0.03004712238907814
1731409629378989300,11.1519892578125,0.04304610192775726,0.05376642197370529,-0.024044889956712723
1731409629389010200,11.16201025390625,0.043347954750061035,0.040491294115781784,-0.011295401491224766
1731409629399030300,11.1720302734375,0.041410770267248154,0.023222826421260834,0.00018894800450652838
1731409629409051100,11.182051025390624,0.03804592788219452,0.005730319302529097,0.00801426637917757
1731409629419072300,11.192072265625,0.03592551872134209,-0.007348731160163879,0.010013235732913017
1731409629429093400,11.20209326171875,0.03963346779346466,-0.02365000545978546,0.01256969477981329
1731409629439113200,11.21211328125,0.03733009845018387,-0.034897331148386,0.020885415375232697
1731409629449134300,11.22213427734375,0.0382632352411747,-0.03270215541124344,0.02162814885377884
1731409629459155200,11.2321552734375,0.042581018060445786,-0.03643564134836197,0.022132551297545433
1731409629469175300,11.24217529296875,0.04953879490494728,-0.0505615770816803,0.03231115639209747
1731409629479196400,11.252196533203126,0.05589602515101433,-0.06754109263420105,0.04831781983375549
1731409629489217300,11.26221728515625,0.05973663553595543,-0.08887994289398193,0.061054762452840805
1731409629499238100,11.272238037109375,0.06388290971517563,-0.10892795026302338,0.06995930522680283
1731409629509258200,11.28225830078125,0.07517045736312866,-0.11170542985200882,0.0675935223698616
1731409629519279400,11.292279296875,0.08618368953466415,-0.11574917286634445,0.05531608685851097
1731409629529300200,11.30230029296875,0.09832024574279785,-0.11698254942893982,0.035173967480659485
1731409629539321000,11.312321044921875,0.10818086564540863,-0.12283618003129959,0.02497672289609909
1731409629549341200,11.322341064453125,0.1193530336022377,-0.13956542313098907,0.026589184999465942
1731409629559362000,11.332362060546876,0.13455328345298767,-0.15056507289409637,0.024120699614286423
1731409629569383200,11.342383056640625,0.14482450485229492,-0.14749297499656677,0.019732290878891945
1731409629579403300,11.3524033203125,0.1493835747241974,-0.14530785381793976,0.007641005329787731
1731409629589424000,11.362424072265625,0.15240392088890076,-0.14028361439704895,-0.001132360426709056
1731409629599445200,11.3724453125,0.1487085223197937,-0.1343809813261032,-0.0016364967450499535
1731409629609464800,11.38246484375,0.14936760067939758,-0.10950452834367752,0.01909789629280567
1731409629619485000,11.39248486328125,0.15851449966430664,-0.07519422471523285,0.03601349517703056
1731409629629505800,11.402505859375,0.1782435178756714,-0.03419918566942215,0.02320503443479538
1731409629639527000,11.41252685546875,0.1836654543876648,0.014651177451014519,-0.000646767090074718
1731409629649547800,11.4225478515625,0.16052919626235962,0.06609898060560226,-0.020503655076026917
1731409629659567900,11.43256787109375,0.11776549369096756,0.08087686449289322,-0.06952526420354843
1731409629669588700,11.442588623046875,0.06749182194471359,0.0687323808670044,-0.11292000859975815
1731409629679610000,11.452610107421876,0.023206911981105804,0.035844746977090836,-0.1439269334077835
1731409629689631000,11.462630859375,-0.012751295231282711,0.009122654795646667,-0.17027829587459564
1731409629699651000,11.472651123046875,-0.043916139751672745,0.020662665367126465,-0.1501048505306244
1731409629709672000,11.482671875,-0.06588342785835266,0.05180620402097702,-0.08219478279352188
1731409629719693000,11.492693115234376,-0.06776495277881622,0.08124106377363205,-0.011575473472476006
1731409629729713000,11.502712890625,-0.05141190066933632,0.10638362914323807,0.03514794260263443
1731409629739734000,11.512734130859375,-0.039536599069833755,0.12389125674962997,0.05604417249560356
1731409629749755000,11.5227548828125,-0.04120654985308647,0.13006025552749634,0.06434544920921326
1731409629759776000,11.53277587890625,-0.04444442316889763,0.12057780474424362,0.07762663066387177
1731409629769795800,11.5427958984375,-0.053951285779476166,0.10496143251657486,0.08138859272003174
1731409629779817000,11.55281689453125,-0.06679438054561615,0.09324192255735397,0.0774039700627327
1731409629789837800,11.562837890625,-0.06914716958999634,0.06949272006750107,0.07460732012987137
1731409629799858700,11.572858642578124,-0.06156035140156746,0.05159521475434303,0.07363153994083405
1731409629809878800,11.582878662109374,-0.04999113455414772,0.03376508504152298,0.07296251505613327
1731409629819900000,11.59289990234375,-0.037320349365472794,0.021046359091997147,0.07931095361709595
1731409629829921000,11.602921142578126,-0.017790766432881355,0.013654354959726334,0.08154931664466858
1731409629839941000,11.612941162109376,-0.005060856230556965,0.01182769238948822,0.08082600682973862
1731409629849962000,11.6229619140625,0.00005409953882917762,0.011251451447606087,0.06876043230295181
1731409629859982800,11.63298291015625,-0.00402959156781435,0.0142203439027071,0.055649954825639725
1731409629870004000,11.64300390625,-0.006712016649544239,0.020254135131835938,0.03630104660987854
1731409629880024000,11.653024169921874,-0.0065919081680476665,0.020424045622348785,0.01651296205818653
1731409629890045000,11.663044921875,-0.005892621818929911,0.014895055443048477,0.000904455897398293
1731409629900065800,11.673065673828125,-0.005173035431653261,0.02574397623538971,0.004706384614109993
1731409629910087000,11.6830869140625,-0.0027444094885140657,0.025069529190659523,0.006334884557873011
1731409629920107000,11.69310693359375,0.0017768389079719782,-0.000697885814588517,-0.013711261563003063
1731409629930128000,11.7031279296875,-0.005522115156054497,-0.018822291865944862,-0.02030477486550808
1731409629940148700,11.713148681640625,-0.010329918935894966,-0.03211785852909088,-0.01976921409368515
1731409629950168800,11.7231689453125,-0.02050153911113739,-0.035728439688682556,-0.015166419558227062
1731409629960189700,11.733189697265624,-0.025777528062462807,-0.023340482264757156,-0.01145796850323677
1731409629970211000,11.743211181640625,-0.03324488177895546,-0.023792818188667297,-0.014953937381505966
1731409629980232000,11.75323193359375,-0.02903708815574646,-0.023000527173280716,-0.015386967919766903
1731409629990252000,11.763251953125,-0.026792161166667938,-0.03223710134625435,-0.010291945189237595
1731409630000273000,11.77327294921875,-0.024708503857254982,-0.03646913170814514,-0.005333671811968088
1731409630010294000,11.7832939453125,-0.024146074429154396,-0.03629016876220703,0.009864532388746738
1731409630020315000,11.79331494140625,-0.02941114455461502,-0.035293348133563995,0.0015560021856799722
1731409630030335000,11.8033349609375,-0.031563036143779755,-0.03445085510611534,-0.004061457235366106
1731409630040355800,11.81335595703125,-0.032714322209358215,-0.040979862213134766,-0.006205035373568535
1731409630050377000,11.823376953125,-0.032837893813848495,-0.04994871839880943,-0.0009050093358382583
1731409630060396800,11.833396728515625,-0.024243606254458427,-0.05831051245331764,0.004293214995414019
1731409630070418000,11.84341796875,-0.013936580158770084,-0.060219667851924896,0.019438160583376884
1731409630080438800,11.853438720703124,0.00430394196882844,-0.0699111819267273,0.026359716430306435
1731409630090460000,11.8634599609375,0.0174795463681221,-0.076174795627594,0.03413983806967735
1731409630100479700,11.873479736328125,0.028404099866747856,-0.07341895997524261,0.04249044507741928
1731409630110500900,11.8835009765625,0.03192976862192154,-0.06949206441640854,0.051839400082826614
1731409630120522000,11.89352197265625,0.03502596169710159,-0.07011790573596954,0.055871956050395966
1731409630130543000,11.903543212890625,0.03810809552669525,-0.0766005739569664,0.06651207059621811
1731409630140563000,11.91356298828125,0.04440807178616524,-0.07893963158130646,0.0863608792424202
1731409630150584000,11.923583984375,0.058527201414108276,-0.06692224740982056,0.11152804642915726
1731409630160605000,11.93360498046875,0.08139869570732117,-0.04005015268921852,0.12175698578357697
1731409630170625000,11.943625,0.09229368716478348,0.00012449832865968347,0.08929021656513214
1731409630180646000,11.95364599609375,0.07181371748447418,0.024174707010388374,0.024563422426581383
1731409630190667000,11.9636669921875,0.04287228360772133,0.025634652003645897,-0.04358338937163353
1731409630200687900,11.97368798828125,0.01711924932897091,0.015228616073727608,-0.08639690279960632
1731409630210708000,11.9837080078125,-0.0048727793619036674,-0.008372516371309757,-0.10828021913766861
1731409630220728800,11.993728759765625,-0.0204959474503994,-0.027461256831884384,-0.11118492484092712
1731409630230750000,12.00375,-0.026015525683760643,-0.04269220679998398,-0.10011116415262222
1731409630240770800,12.013770751953125,-0.02882063202559948,-0.042791008949279785,-0.07759147137403488
1731409630250791000,12.023791015625,-0.017674710601568222,-0.00997493788599968,-0.03276319429278374
1731409630260811800,12.033811767578126,-0.003860095050185919,0.017069196328520775,0.00873977318406105
1731409630270833000,12.0438330078125,0.003086669137701392,0.03263077884912491,0.04086494445800781
1731409630280854000,12.05385400390625,0.004671516362577677,0.03177430480718613,0.05404146760702133
1731409630290874000,12.0638740234375,-0.008576704189181328,0.030977021902799606,0.06922399997711182
1731409630300895000,12.07389501953125,-0.010599907487630844,0.04626090079545975,0.06262042373418808
1731409630310915800,12.083915771484374,-0.005308797117322683,0.02304832451045513,0.04574061930179596
1731409630320936000,12.09393603515625,0.007712462451308966,-0.008143418468534946,0.02588569186627865
1731409630330957000,12.10395703125,0.017228204756975174,-0.013319936580955982,-0.0010977920610457659
1731409630340978000,12.11397802734375,0.024137243628501892,-0.004858541302382946,-0.008773022331297398
1731409630350998800,12.123998779296874,0.03266788274049759,0.00004274054663255811,0.016422612592577934
1731409630361019000,12.134018798828125,0.035161931067705154,-0.0091805849224329,0.040000107139348984
1731409630371039700,12.144039794921875,0.038960423320531845,-0.017731528729200363,0.030399376526474953
1731409630381060900,12.154060791015626,0.04572458565235138,-0.021228259429335594,0.008631495758891106
1731409630391081000,12.1640810546875,0.05189729481935501,-0.019302330911159515,-0.012091534212231636
1731409630401101800,12.174101806640625,0.052884526550769806,-0.016413865610957146,-0.015516625717282295
1731409630411122700,12.184122802734375,0.04775720089673996,-0.01901211030781269,-0.01366531103849411
1731409630421144000,12.19414404296875,0.04482745751738548,-0.019393742084503174,-0.015298627316951752
1731409630431164000,12.204163818359374,0.03627335652709007,-0.010093184188008308,-0.021351788192987442
1731409630441185000,12.21418505859375,0.033584896475076675,-0.006071811076253653,-0.030736234039068222
1731409630451206000,12.224205810546875,0.035248275846242905,-0.01385350152850151,-0.04299645498394966
1731409630461227000,12.23422705078125,0.038443271070718765,-0.02504410594701767,-0.04246781766414642
1731409630471246800,12.244246826171874,0.038435813039541245,-0.038852062076330185,-0.03789224103093147
1731409630481268000,12.25426806640625,0.0369497686624527,-0.04639359936118126,-0.031701456755399704
1731409630491288800,12.264288818359375,0.04266310855746269,-0.05180101469159126,-0.024814732372760773
1731409630501309000,12.274308837890626,0.040152814239263535,-0.04686431214213371,-0.0115346135571599
1731409630511329800,12.284329833984375,0.03746722266077995,-0.042407646775245667,-0.0069564273580908775
1731409630521351000,12.294350830078125,0.03390683978796005,-0.04671104997396469,-0.0031257362570613623
1731409630531371800,12.304371826171876,0.03453824669122696,-0.036855291575193405,-0.009167809970676899
1731409630541392000,12.314391845703126,0.03552015498280525,-0.019164975732564926,-0.012124717235565186
1731409630551412700,12.324412841796875,0.036991313099861145,0.0009819030528888106,-0.016190139576792717
1731409630561434000,12.33443408203125,0.03875725716352463,0.018147572875022888,-0.03601977229118347
