time,seconds_elapsed,z,y,x
1731409618269760000,0.042760009765625,0.5367976427078247,0.3423349857330322,-0.5510697960853577
1731409618279780900,0.05278076171875,0.5485038757324219,0.2704501450061798,-0.5054027438163757
1731409618289801700,0.0628017578125,0.5429125428199768,0.28945818543434143,-0.4100908637046814
1731409618299821800,0.07282177734375,0.5055925846099854,0.33002397418022156,-0.28646770119667053
1731409618309843000,0.082843017578125,0.44365307688713074,0.3388523459434509,-0.15041054785251617
1731409618319863800,0.09286376953125,0.37404176592826843,0.3265959620475769,-0.0004948153509758413
1731409618329884000,0.1028837890625,0.30254682898521423,0.33244746923446655,0.15455682575702667
1731409618339904800,0.11290478515625,0.20763282477855682,0.27091777324676514,0.2987787127494812
1731409618349925600,0.122925537109375,0.06291664391756058,0.13159237802028656,0.4152350127696991
1731409618359947000,0.132947021484375,-0.12449052929878235,-0.044495031237602234,0.48929911851882935
1731409618369967000,0.142967041015625,-0.3395839333534241,-0.2117556631565094,0.5198085904121399
1731409618379988000,0.152988037109375,-0.5550152659416199,-0.32706815004348755,0.4942438006401062
1731409618390008800,0.1630087890625,-0.7225469946861267,-0.37505483627319336,0.41604116559028625
1731409618400030000,0.173030029296875,-0.7918052077293396,-0.3772604763507843,0.3103586733341217
1731409618410049800,0.1830498046875,-0.7361491322517395,-0.2995139956474304,0.194675475358963
1731409618420071000,0.19307080078125,-0.5864520072937012,-0.22376412153244019,0.09145641326904297
1731409618430091800,0.203091796875,-0.40833714604377747,-0.20131073892116547,0.008095476776361465
1731409618440111900,0.21311181640625,-0.25368499755859375,-0.17819370329380035,-0.04826420173048973
1731409618450132700,0.2231328125,-0.12775130569934845,-0.1481444537639618,-0.06960224360227585
1731409618460153900,0.23315380859375,-0.02293168194591999,-0.11272548139095306,-0.06665758788585663
1731409618470174700,0.2431748046875,0.050268497318029404,-0.11444162577390671,-0.05147118121385574
1731409618480194800,0.25319482421875,0.10624148696660995,-0.1288517266511917,-0.04188273474574089
1731409618490215700,0.263215576171875,0.1576378345489502,-0.1584562212228775,-0.022420087829232216
1731409618500237000,0.273237060546875,0.21196232736110687,-0.16027143597602844,-0.005766542628407478
1731409618510256600,0.283256591796875,0.2605823278427124,-0.12692385911941528,-0.0011411645682528615
1731409618520278000,0.293278076171875,0.28322452306747437,-0.1052720919251442,-0.02394421398639679
1731409618530299000,0.303298828125,0.28369084000587463,-0.11871439963579178,-0.05839060619473457
1731409618540320000,0.313320068359375,0.27776795625686646,-0.12311048060655594,-0.09199250489473343
1731409618550339800,0.32333984375,0.2942657172679901,-0.08563101291656494,-0.11165968328714371
1731409618560361000,0.33336083984375,0.3368728458881378,-0.01889432966709137,-0.10333411395549774
1731409618570381800,0.3433818359375,0.3935084044933319,0.0383433923125267,-0.07766789942979813
1731409618580403000,0.35340283203125,0.43344172835350037,0.061154965311288834,-0.041674476116895676
1731409618590422800,0.3634228515625,0.43090319633483887,0.034700457006692886,-0.0052291168831288815
1731409618600443600,0.373443603515625,0.38939064741134644,-0.03632365167140961,0.04270458593964577
1731409618610464500,0.383464599609375,0.3405227065086365,-0.10896269977092743,0.09668206423521042
1731409618620484600,0.393484619140625,0.3118436336517334,-0.12630680203437805,0.152740016579628
1731409618630505500,0.40350537109375,0.3238790035247803,-0.07351896166801453,0.20099195837974548
1731409618640526600,0.413526611328125,0.3666515052318573,-0.00173771264962852,0.2377137541770935
1731409618650547500,0.42354736328125,0.43359270691871643,0.04784555360674858,0.2669869661331177
1731409618660567600,0.433567626953125,0.5208602547645569,0.07960215210914612,0.29699838161468506
1731409618670588400,0.44358837890625,0.6044411659240723,0.10671206563711166,0.3251834213733673
1731409618680609500,0.453609619140625,0.6239293813705444,0.13811925053596497,0.3192911744117737
1731409618690629400,0.46362939453125,0.5061023235321045,0.14337953925132751,0.2560597360134125
1731409618700650500,0.473650390625,0.3179872930049896,0.06730394065380096,0.18939149379730225
1731409618710671400,0.48367138671875,0.1534966081380844,-0.031146202236413956,0.15577735006809235
1731409618720692500,0.4936923828125,0.05049433186650276,-0.06054963171482086,0.16065040230751038
1731409618730712300,0.50371240234375,0.005111937876790762,-0.05806756392121315,0.18945088982582092
1731409618740733400,0.5137333984375,0.022249113768339157,-0.03701314702630043,0.24281850457191467
1731409618750754600,0.523754638671875,0.07212425768375397,0.002916427794843912,0.2984553873538971
1731409618760775700,0.533775634765625,0.11520382016897202,0.05624436214566231,0.321845680475235
1731409618770795500,0.54379541015625,0.12241779267787933,0.08453432470560074,0.30337053537368774
1731409618780816600,0.553816650390625,0.10887402296066284,0.07030052691698074,0.27048182487487793
1731409618790837500,0.56383740234375,0.0844283327460289,0.05582278594374657,0.24664892256259918
1731409618800857600,0.573857666015625,0.07446837425231934,0.07215595245361328,0.2333190143108368
1731409618810878500,0.58387841796875,0.08266665041446686,0.08889312297105789,0.21774058043956757
1731409618820899600,0.593899658203125,0.09390679001808167,0.07731129974126816,0.19458146393299103
1731409618830920400,0.60392041015625,0.09173018485307693,0.03970613330602646,0.1657620668411255
1731409618840940500,0.6139404296875,0.0754910260438919,0.01594381220638752,0.11400699615478516
1731409618850961400,0.62396142578125,0.0585663728415966,-0.006252835970371962,0.05736715346574783
1731409618860982500,0.633982421875,0.06300133466720581,0.00860307551920414,-0.003936951048672199
1731409618871003400,0.64400341796875,0.09029394388198853,0.05445658415555954,-0.044504083693027496
1731409618881023500,0.6540234375,0.09948237985372543,0.13467392325401306,-0.06497953087091446
1731409618891044600,0.664044677734375,0.07527664303779602,0.20933590829372406,-0.06252356618642807
1731409618901065500,0.6740654296875,0.058520033955574036,0.2190316766500473,-0.04585989937186241
1731409618911085600,0.68408544921875,0.043710995465517044,0.1832510530948639,-0.0136625487357378
1731409618921106700,0.694106689453125,0.017827998846769333,0.15488864481449127,0.02034441940486431
1731409618931127600,0.70412744140625,-0.03334304317831993,0.10882075875997543,0.04694114252924919
1731409618941148400,0.7141484375,-0.09335817396640778,0.07217273116111755,0.0583176352083683
1731409618951168500,0.72416845703125,-0.13884390890598297,0.04296344518661499,0.07174982130527496
1731409618961189600,0.734189697265625,-0.15995478630065918,0.03829226270318031,0.08607017248868942
1731409618971210500,0.74421044921875,-0.16329997777938843,0.03954900801181793,0.08620093017816544
1731409618981230600,0.754230712890625,-0.16100779175758362,0.04784954711794853,0.05401529744267464
1731409618991251500,0.76425146484375,-0.15623007714748383,0.06559046357870102,-0.0014911039033904672
1731409619001272300,0.774272216796875,-0.14836657047271729,0.08192522823810577,-0.06446713954210281
1731409619011293400,0.78429345703125,-0.13999971747398376,0.1107155978679657,-0.12671400606632233
1731409619021313500,0.7943134765625,-0.13701777160167694,0.1240023747086525,-0.1754908561706543
1731409619031334400,0.80433447265625,-0.13553519546985626,0.1402130275964737,-0.21124432981014252
1731409619041355500,0.81435546875,-0.1369522660970688,0.1391720026731491,-0.22118590772151947
1731409619051376600,0.824376708984375,-0.13807371258735657,0.10090770572423935,-0.21275115013122559
1731409619061396500,0.834396484375,-0.0838131383061409,-0.014479606412351131,-0.16324032843112946
1731409619071417600,0.84441748046875,0.13240358233451843,-0.1877531260251999,-0.020243486389517784
1731409619081438500,0.8544384765625,0.31666475534439087,-0.22226396203041077,0.15939445793628693
1731409619091458600,0.86445849609375,0.3217138648033142,-0.20931513607501984,0.283440500497818
1731409619101479400,0.8744794921875,0.18586893379688263,-0.1603928655385971,0.344930499792099
1731409619111500500,0.88450048828125,0.02467738278210163,-0.10060223937034607,0.3596567213535309
1731409619121521400,0.894521484375,-0.09928610920906067,-0.1021423488855362,0.3400478661060333
1731409619131541500,0.90454150390625,-0.1596360057592392,-0.1428477019071579,0.295172780752182
1731409619141562400,0.914562255859375,-0.15054742991924286,-0.18571233749389648,0.2388509213924408
1731409619151583500,0.92458349609375,-0.1009569764137268,-0.2516777813434601,0.1785244643688202
1731409619161603300,0.934603271484375,-0.05229063332080841,-0.2759042978286743,0.13091273605823517
1731409619171624400,0.94462451171875,-0.03543362393975258,-0.2552666664123535,0.10050663352012634
1731409619181645300,0.954645263671875,-0.05409412831068039,-0.24093884229660034,0.09368787705898285
1731409619191666700,0.964666748046875,-0.08803291618824005,-0.24648833274841309,0.113832026720047
1731409619201686300,0.974686279296875,-0.11830054223537445,-0.28397873044013977,0.15909165143966675
1731409619211707600,0.984707763671875,-0.13127359747886658,-0.35642629861831665,0.23005637526512146
1731409619221728500,0.994728515625,-0.13498204946517944,-0.4477812349796295,0.3051242232322693
1731409619231749600,1.00474951171875,-0.1316552311182022,-0.5735296010971069,0.37694114446640015
1731409619241769500,1.01476953125,-0.1371794193983078,-0.7097920775413513,0.46891528367996216
1731409619251790600,1.02479052734375,-0.1699349731206894,-0.8491725921630859,0.5620617270469666
1731409619261811500,1.0348115234375,-0.24759088456630707,-1.002619743347168,0.6598820686340332
1731409619271831600,1.04483154296875,-0.3372368812561035,-1.0894893407821655,0.7712897658348083
1731409619281852400,1.054852294921875,-0.4054979681968689,-1.091929316520691,0.8746177554130554
1731409619291873500,1.06487353515625,-0.4213451147079468,-1.0513395071029663,0.9587752819061279
1731409619301894400,1.074894287109375,-0.3804919421672821,-1.0116523504257202,1.0131266117095947
1731409619311914500,1.08491455078125,-0.30239635705947876,-0.9845101833343506,1.0397329330444336
1731409619321935400,1.094935302734375,-0.21115805208683014,-0.9472813606262207,1.019526720046997
1731409619331956500,1.10495654296875,-0.18265476822853088,-0.6203612685203552,0.7497634887695312
1731409619341976300,1.114976318359375,-0.135873943567276,-0.4808502495288849,0.49792349338531494
1731409619351997700,1.124997802734375,-0.0724204033613205,-0.4442994296550751,0.38803136348724365
1731409619362018600,1.1350185546875,-0.020203005522489548,-0.2637363076210022,0.30042028427124023
1731409619372039700,1.145039794921875,0.040776193141937256,-0.10274102538824081,0.18765512108802795
1731409619382059500,1.1550595703125,0.143438920378685,-0.051844287663698196,0.11476066708564758
1731409619392080600,1.16508056640625,0.22094783186912537,-0.06493878364562988,0.10682764649391174
1731409619402101500,1.1751015625,0.22305065393447876,-0.15432752668857574,0.1491929441690445
1731409619412122400,1.185122314453125,0.16693252325057983,-0.3159307837486267,0.2287151962518692
1731409619422142500,1.195142578125,0.14131318032741547,-0.5409378409385681,0.3557985723018646
1731409619432163600,1.20516357421875,0.1892881691455841,-0.81314617395401,0.5237532258033752
1731409619442184400,1.215184326171875,0.32833313941955566,-1.0643980503082275,0.673805832862854
1731409619452204500,1.22520458984375,0.4775428771972656,-1.2474925518035889,0.7030732035636902
1731409619462225400,1.235225341796875,0.5818106532096863,-1.3172564506530762,0.6225903034210205
1731409619472246500,1.24524658203125,0.6941651701927185,-1.2592450380325317,0.4980766475200653
1731409619482267600,1.255267578125,0.8089439868927002,-1.1098140478134155,0.3809577226638794
1731409619492287500,1.26528759765625,0.9198124408721924,-0.8902830481529236,0.3093336224555969
1731409619502308600,1.27530859375,0.9689996838569641,-0.6697317361831665,0.3156399726867676
1731409619512329500,1.28532958984375,0.8949776291847229,-0.4413374662399292,0.4280514717102051
1731409619522349600,1.295349609375,0.7636385560035706,-0.27795732021331787,0.6503154635429382
1731409619532370700,1.30537060546875,0.6081525087356567,-0.20113897323608398,0.932994544506073
1731409619542391600,1.3153916015625,0.4593300223350525,-0.2599588632583618,1.194584608078003
1731409619552412400,1.325412353515625,0.34210115671157837,-0.5297072529792786,1.3801398277282715
1731409619562432500,1.3354326171875,0.27977946400642395,-0.9293936491012573,1.4587326049804688
1731409619572453400,1.345453369140625,0.31607887148857117,-1.3276704549789429,1.4836273193359375
1731409619582474500,1.355474609375,0.43070799112319946,-1.6115453243255615,1.5350220203399658
1731409619592495400,1.365495361328125,0.5353387594223022,-1.7859152555465698,1.642288088798523
1731409619602515200,1.37551513671875,0.6197655200958252,-1.8149127960205078,1.789016842842102
1731409619612536000,1.3855361328125,0.6542409658432007,-1.7879233360290527,2.010497570037842
1731409619622557200,1.39555712890625,0.6650040745735168,-1.984714388847351,2.345072031021118
1731409619632577300,1.405577392578125,0.718999445438385,-2.1935107707977295,2.716275930404663
1731409619642598100,1.41559814453125,0.7795517444610596,-2.2052316665649414,3.0798380374908447
1731409619652619300,1.425619384765625,0.7914829254150391,-2.089460611343384,3.388349771499634
1731409619662640400,1.435640380859375,0.7421036958694458,-1.9345101118087769,3.5679500102996826
1731409619672660200,1.44566015625,0.678661584854126,-1.8039177656173706,3.6131253242492676
1731409619682681300,1.455681396484375,0.6708976626396179,-1.672993540763855,3.610016107559204
1731409619692702200,1.4657021484375,0.7031165957450867,-1.6179380416870117,3.664440155029297
1731409619702722300,1.475722412109375,0.6947356462478638,-1.643341302871704,3.767076253890991
1731409619712743200,1.4857431640625,0.6095623970031738,-1.5885614156723022,3.8753299713134766
1731409619722764300,1.495764404296875,0.4560953676700592,-1.553234577178955,3.945161819458008
1731409619732785200,1.50578515625,0.2487219274044037,-1.608902096748352,3.8722054958343506
1731409619742805200,1.51580517578125,0.0597488172352314,-1.6237770318984985,3.629920721054077
1731409619752826000,1.525826171875,0.06337737292051315,-1.5294930934906006,3.440662384033203
1731409619762847200,1.53584716796875,0.1934536248445511,-1.4219114780426025,3.29966402053833
1731409619772868000,1.5458681640625,0.24636583030223846,-1.2613276243209839,3.171597719192505
1731409619782888200,1.55588818359375,0.07897284626960754,-0.8278822302818298,2.905907392501831
1731409619792909000,1.565908935546875,-0.159205362200737,-0.43396955728530884,2.6511030197143555
1731409619802930400,1.575930419921875,-0.21812275052070618,-0.1816214621067047,2.4718172550201416
1731409619812950000,1.585949951171875,-0.19273295998573303,-0.022605976089835167,2.3714230060577393
1731409619822971400,1.595971435546875,-0.179880291223526,0.0004953479510731995,2.2979135513305664
1731409619832992300,1.6059921875,-0.19185519218444824,-0.1424250602722168,2.2441093921661377
1731409619843013400,1.616013427734375,-0.2109396606683731,-0.33175262808799744,2.2206788063049316
1731409619853033200,1.626033203125,-0.20994870364665985,-0.36834368109703064,2.1732335090637207
1731409619863054300,1.636054443359375,-0.21321746706962585,-0.26353177428245544,2.0522730350494385
1731409619873075200,1.6460751953125,-0.2853774130344391,-0.18339459598064423,1.8915256261825562
1731409619883095300,1.65609521484375,-0.43942850828170776,-0.13065148890018463,1.7088454961776733
1731409619893116200,1.6661162109375,-0.6086404323577881,-0.06365381181240082,1.4930839538574219
1731409619903137300,1.67613720703125,-0.7217555046081543,0.018872756510972977,1.2400732040405273
1731409619913158100,1.686158203125,-0.7437942624092102,0.09772815555334091,0.9715198278427124
1731409619923178200,1.69617822265625,-0.6177998185157776,0.22556468844413757,0.783852219581604
1731409619933199000,1.70619921875,-0.41743478178977966,0.43408140540122986,0.7034066319465637
1731409619943220200,1.71622021484375,-0.22089935839176178,0.5424352884292603,0.7010566592216492
1731409619953241300,1.726241455078125,-0.07741889357566833,0.49473437666893005,0.7890456318855286
1731409619963261400,1.736261474609375,0.02046106569468975,0.5465219020843506,1.0493965148925781
1731409619973282300,1.7462822265625,0.10076362639665604,0.7871590256690979,1.4603294134140015
1731409619983303400,1.756303466796875,0.18344944715499878,1.121059536933899,1.9321401119232178
1731409619993323300,1.7663232421875,0.271223247051239,1.5070213079452515,2.428306818008423
1731409620003344400,1.776344482421875,0.3756907880306244,1.8236072063446045,2.900141954421997
1731409620013365200,1.786365234375,0.4890226721763611,2.1444849967956543,3.4177186489105225
1731409620023386400,1.796386474609375,0.675663948059082,2.545443058013916,4.063262462615967
1731409620033406200,1.80640625,0.9018712639808655,3.0041823387145996,4.8126325607299805
1731409620043427300,1.81642724609375,1.1082550287246704,3.287585496902466,5.5461812019348145
1731409620053448200,1.8264482421875,1.2689688205718994,3.3464601039886475,6.176339149475098
1731409620063468300,1.83646826171875,1.301820993423462,2.981877088546753,6.7477803230285645
1731409620073489200,1.8464892578125,1.2520681619644165,2.462773561477661,7.2135138511657715
1731409620083510300,1.85651025390625,1.1516163349151611,2.0541253089904785,7.577625274658203
1731409620093531100,1.86653125,0.9491854906082153,0.628372073173523,7.002884387969971
1731409620103551200,1.87655126953125,0.23990926146507263,0.9267914891242981,-0.5885066390037537
1731409620113572400,1.886572265625,-0.23671400547027588,0.009306415915489197,-1.1557674407958984
1731409620123593200,1.89659326171875,-0.8627358078956604,0.08561556786298752,-0.7933682203292847
1731409620133614300,1.9066142578125,-0.8723043203353882,0.6457307934761047,-0.07224969565868378
1731409620143634400,1.916634521484375,-0.6517066955566406,0.8337624669075012,0.20072431862354279
1731409620153655300,1.9266552734375,-0.3368089199066162,0.5967369079589844,0.04971535876393318
1731409620163676200,1.93667626953125,-0.00717508839443326,0.05606885999441147,-0.19326213002204895
1731409620173696300,1.9466962890625,0.2409745305776596,-0.6332240700721741,-0.540350079536438
1731409620183717400,1.95671728515625,0.29840508103370667,-1.0581120252609253,-0.9859861135482788
1731409620193738200,1.96673828125,0.19943241775035858,-1.1866281032562256,-1.4285107851028442
1731409620203759000,1.976759033203125,-0.0509827584028244,-0.9832600951194763,-1.8129762411117554
1731409620213779200,1.986779296875,-0.3214571177959442,-0.5787866711616516,-2.0821781158447266
1731409620223800000,1.996800048828125,-0.5121471881866455,-0.10169653594493866,-2.267486333847046
1731409620233821200,2.0068212890625,-0.6136599779129028,0.3038261830806732,-2.3709256649017334
1731409620243842300,2.01684228515625,-0.6462229490280151,0.4348697066307068,-2.416952610015869
1731409620253862100,2.026862060546875,-0.6366150975227356,0.26351553201675415,-2.4102773666381836
1731409620263883300,2.03688330078125,-0.6098353862762451,-0.15879204869270325,-2.3858513832092285
1731409620273904400,2.046904296875,-0.5750574469566345,-0.7027294039726257,-2.3969390392303467
1731409620283924200,2.05692431640625,-0.5695856809616089,-1.1977177858352661,-2.442561626434326
1731409620293945300,2.0669453125,-0.5768550634384155,-1.4678353071212769,-2.499994993209839
1731409620303966200,2.07696630859375,-0.4956182837486267,-1.450168490409851,-2.570558547973633
1731409620313987300,2.0869873046875,-0.344520628452301,-1.1559159755706787,-2.6485912799835205
1731409620324007200,2.097007080078125,-0.19987262785434723,-0.7570421695709229,-2.6564133167266846
1731409620334028300,2.1070283203125,-0.06125536933541298,-0.3994073271751404,-2.5151684284210205
1731409620344049200,2.117049072265625,0.09026224911212921,-0.26317837834358215,-2.327054262161255
1731409620354069200,2.1270693359375,0.17646823823451996,-0.379382461309433,-2.159787178039551
1731409620364090000,2.137090087890625,0.23416855931282043,-0.5891751050949097,-1.9891517162322998
1731409620374111200,2.147111328125,0.31951674818992615,-0.8021515607833862,-1.8822218179702759
1731409620384132000,2.157132080078125,0.35884150862693787,-0.9882506132125854,-1.8515009880065918
1731409620394152200,2.167152099609375,0.3164738118648529,-1.039908766746521,-1.8679518699645996
1731409620404173000,2.177173095703125,0.19414843618869781,-1.0848215818405151,-1.9092878103256226
1731409620414194400,2.1871943359375,0.033612821251153946,-1.002191424369812,-1.7929553985595703
1731409620424215300,2.19721533203125,-0.08846195787191391,-0.7178430557250977,-1.4449100494384766
1731409620434235400,2.2072353515625,-0.1146397665143013,-0.4187341332435608,-1.0143897533416748
1731409620444256300,2.21725634765625,-0.06631803512573242,-0.1919715702533722,-0.663861870765686
1731409620454277400,2.22727734375,0.03128069266676903,-0.044491302222013474,-0.49136120080947876
1731409620464297200,2.237297119140625,0.13745559751987457,-0.0063154203817248344,-0.4865590035915375
1731409620474318300,2.247318359375,0.24395008385181427,-0.058872904628515244,-0.47958818078041077
1731409620484339200,2.257339111328125,0.3253248333930969,-0.04315492883324623,-0.34143587946891785
1731409620494360300,2.2673603515625,0.34230515360832214,-0.003596865339204669,-0.10779330879449844
1731409620504380200,2.277380126953125,0.3195657432079315,0.06664799898862839,0.17580777406692505
1731409620514401300,2.2874013671875,0.2570376396179199,0.20247215032577515,0.49176493287086487
1731409620524422100,2.297422119140625,0.18424281477928162,0.3405349552631378,0.8238211870193481
1731409620534443300,2.307443359375,0.15754728019237518,0.4835706651210785,1.1406787633895874
1731409620544463000,2.317463134765625,0.16429759562015533,0.6485340595245361,1.4362928867340088
1731409620554484500,2.327484375,0.20372170209884644,0.7711289525032043,1.7218875885009766
1731409620564505300,2.33750537109375,0.2558048665523529,0.8373804092407227,2.0491251945495605
1731409620574525400,2.347525390625,0.28904804587364197,0.9462714791297913,2.4994921684265137
1731409620584546300,2.35754638671875,0.3585035502910614,1.078776478767395,3.071254014968872
1731409620594567400,2.3675673828125,0.40124809741973877,1.226050853729248,3.673848867416382
1731409620604588000,2.377588134765625,0.3850281238555908,1.4041612148284912,4.306246280670166
1731409620614608100,2.387608154296875,0.3635081648826599,1.6158250570297241,5.000584602355957
1731409620624629000,2.39762890625,0.3440313935279846,1.8396352529525757,5.743274688720703
1731409620634650000,2.407650146484375,0.3154650032520294,2.076077938079834,6.501686096191406
1731409620644670000,2.417669921875,0.2841275930404663,2.1227076053619385,7.270327568054199
1731409620654691000,2.427691162109375,0.3733951449394226,1.972999930381775,7.959433078765869
1731409620664712000,2.4377119140625,0.4787415564060211,1.4353010654449463,8.374780654907227
1731409620674732800,2.44773291015625,0.18001344799995422,-1.8204388618469238,4.237099647521973
1731409620684753000,2.4577529296875,0.25684884190559387,0.843553900718689,0.037398237735033035
1731409620694774000,2.46777392578125,0.6208832263946533,0.315528929233551,-0.9839943647384644
1731409620704795000,2.477794921875,0.408290833234787,-0.15904051065444946,-1.2615755796432495
1731409620714816000,2.48781591796875,0.30276891589164734,0.25662487745285034,-0.6253408193588257
1731409620724836000,2.497836181640625,0.26256638765335083,0.6171625256538391,0.3478791415691376
1731409620734857000,2.50785693359375,0.24995577335357666,0.5436060428619385,0.8741573095321655
1731409620744878000,2.517878173828125,0.3237873911857605,0.041909899562597275,0.8970701098442078
1731409620754899000,2.52789892578125,0.45281752943992615,-0.50418621301651,0.6803979873657227
1731409620764919000,2.5379189453125,0.5849140882492065,-0.9352110624313354,0.2845070958137512
1731409620774940000,2.54793994140625,0.6345465779304504,-1.1970610618591309,-0.19472767412662506
1731409620784961000,2.5579609375,0.48718059062957764,-1.3071221113204956,-0.6715301871299744
1731409620794981000,2.567981201171875,0.21600793302059174,-1.1662362813949585,-1.0875869989395142
1731409620805002000,2.578001953125,-0.06254912912845612,-0.7706484794616699,-1.3766353130340576
1731409620815022800,2.58802294921875,-0.2563822567462921,-0.26342523097991943,-1.5780558586120605
1731409620825044000,2.5980439453125,-0.34938567876815796,0.21546252071857452,-1.7364113330841064
1731409620835063800,2.608063720703125,-0.36814260482788086,0.43563908338546753,-1.8995361328125
1731409620845085000,2.6180849609375,-0.32630646228790283,0.397756427526474,-2.0393638610839844
1731409620855106000,2.62810595703125,-0.23920086026191711,0.13316577672958374,-2.1476616859436035
1731409620865126000,2.6381259765625,-0.14280961453914642,-0.27172818779945374,-2.254565954208374
1731409620875147000,2.64814697265625,-0.07516878843307495,-0.7028910517692566,-2.340520143508911
1731409620885168000,2.658168212890625,-0.07367315888404846,-1.034014344215393,-2.3846843242645264
1731409620895189000,2.66818896484375,-0.08181284368038177,-1.2164033651351929,-2.3900485038757324
1731409620905209000,2.678208984375,-0.026879018172621727,-1.1383037567138672,-2.37831974029541
1731409620915230000,2.68822998046875,0.0401117317378521,-0.8358767628669739,-2.339768886566162
1731409620925251000,2.6982509765625,0.1227078065276146,-0.5143980979919434,-2.2522470951080322
1731409620935272000,2.70827197265625,0.19674421846866608,-0.3055897355079651,-2.1489334106445312
1731409620945292000,2.7182919921875,0.24353009462356567,-0.30587950348854065,-2.0555920600891113
1731409620955313000,2.72831298828125,0.3062102496623993,-0.4908837080001831,-2.003417730331421
1731409620965334000,2.738333984375,0.34481996297836304,-0.7633035182952881,-2.018033981323242
1731409620975353900,2.748353759765625,0.314892441034317,-0.9049993753433228,-2.06128191947937
1731409620985375000,2.758375,0.2317243069410324,-0.9513354897499084,-2.121546983718872
1731409620995395800,2.768395751953125,0.0951044112443924,-0.8026692867279053,-2.171518564224243
1731409621005417200,2.778417236328125,-0.017065269872546196,-0.5234546661376953,-2.2341086864471436
1731409621015436800,2.788436767578125,-0.04669959470629692,-0.24141262471675873,-2.2532992362976074
1731409621025458200,2.798458251953125,-0.007439007982611656,0.04742557182908058,-2.18086314201355
1731409621035479000,2.80847900390625,0.08362352102994919,0.2561787962913513,-2.056816339492798
1731409621045500200,2.818500244140625,0.19505365192890167,0.33239099383354187,-1.9600887298583984
1731409621055520000,2.82852001953125,0.2700416147708893,0.3015265464782715,-1.897162675857544
1731409621065541000,2.838541015625,0.32535412907600403,0.27319851517677307,-1.8844943046569824
1731409621075562000,2.84856201171875,0.4125947654247284,0.2267463207244873,-1.957154631614685
1731409621085582000,2.85858203125,0.4825626611709595,0.17727038264274597,-2.0576868057250977
1731409621095603000,2.86860302734375,0.524660587310791,0.12228836119174957,-2.131452798843384
1731409621105624000,2.8786240234375,0.4793255925178528,-0.00700944010168314,-2.1845405101776123
1731409621115645000,2.88864501953125,0.3287917375564575,-0.10602443665266037,-2.0557942390441895
1731409621125665000,2.8986650390625,0.12688951194286346,-0.08739269524812698,-1.687126874923706
1731409621135686000,2.908685791015625,-0.04866527393460274,-0.080199234187603,-1.2274516820907593
1731409621145707000,2.91870703125,-0.1002536341547966,-0.06769302487373352,-0.8591189980506897
1731409621155728100,2.92872802734375,-0.03393852710723877,-0.009496033191680908,-0.6802706718444824
1731409621165748000,2.938748046875,0.09658965468406677,0.04459569603204727,-0.6856867671012878
1731409621175769000,2.94876904296875,0.23884080350399017,0.11823396384716034,-0.7982697486877441
1731409621185790000,2.9587900390625,0.32844579219818115,0.22722703218460083,-0.949434220790863
1731409621195810000,2.96881005859375,0.29871052503585815,0.2842935025691986,-1.0140677690505981
1731409621205831200,2.9788310546875,0.19464164972305298,0.20360159873962402,-0.8550797700881958
1731409621215852000,2.98885205078125,0.04807618260383606,0.16440492868423462,-0.4863850772380829
1731409621225873000,2.998872802734375,-0.10602763295173645,0.05983004346489906,-0.022462697699666023
1731409621235893000,3.00889306640625,-0.23581145703792572,-0.13616876304149628,0.5672591924667358
1731409621245913900,3.018913818359375,-0.351093590259552,-0.286209374666214,1.423971176147461
1731409621255935000,3.02893505859375,-0.4422980546951294,-0.26288169622421265,2.5404300689697266
1731409621265955800,3.038955810546875,-0.475200891494751,-0.06473664939403534,3.6787779331207275
1731409621275976000,3.048975830078125,-0.44720199704170227,0.173064187169075,4.620340824127197
1731409621285996800,3.058996826171875,-0.38927531242370605,0.3292170464992523,5.381505012512207
1731409621296018000,3.069017822265625,-0.34574249386787415,0.5295048356056213,6.0707221031188965
1731409621306038000,3.0790380859375,-0.32128241658210754,0.9539275169372559,6.7097578048706055
1731409621316059100,3.08905908203125,-0.2571617662906647,1.5363270044326782,7.221446514129639
1731409621326080000,3.099080078125,-0.09421278536319733,2.0976438522338867,7.565166473388672
1731409621336101000,3.10910107421875,0.13614346086978912,2.4975204467773438,7.791021347045898
1731409621346121000,3.119120849609375,0.33094197511672974,2.741236686706543,7.946758270263672
1731409621356142000,3.12914208984375,0.29041585326194763,1.158483862876892,8.517330169677734
1731409621366163000,3.139162841796875,-0.3712819516658783,-1.4745699167251587,3.805201530456543
1731409621376184000,3.14918408203125,0.23781442642211914,-0.30949899554252625,-0.06022898480296135
1731409621386204000,3.159203857421875,0.8312186598777771,-0.6565403342247009,-1.154293417930603
1731409621396225000,3.16922509765625,0.49898451566696167,-0.4433944821357727,-1.6091316938400269
1731409621406246000,3.179245849609375,0.1689157783985138,-0.04900136590003967,-1.3556722402572632
1731409621416266000,3.189265869140625,0.024531975388526917,0.20706503093242645,-0.6823346018791199
1731409621426286800,3.199286865234375,0.01991618424654007,0.4725475609302521,-0.1801716387271881
1731409621436308000,3.209307861328125,0.14963023364543915,0.19579879939556122,-0.15612941980361938
1731409621446329000,3.2193291015625,0.2663850784301758,-0.5294862389564514,-0.4431406855583191
1731409621456349000,3.229348876953125,0.2892720103263855,-1.181585431098938,-0.7504870295524597
1731409621466370000,3.2393701171875,0.2026817351579666,-1.6388390064239502,-0.9801093339920044
1731409621476391200,3.24939111328125,0.04031892865896225,-1.700203537940979,-1.1160410642623901
1731409621486412000,3.259412109375,-0.11391644924879074,-1.3691835403442383,-1.1795669794082642
1731409621496432000,3.26943212890625,-0.25838255882263184,-0.803139328956604,-1.2333359718322754
1731409621506453000,3.279452880859375,-0.4156821668148041,-0.20043562352657318,-1.2985820770263672
1731409621516474000,3.28947412109375,-0.5269200205802917,0.22185011208057404,-1.337135672569275
1731409621526494000,3.299493896484375,-0.6005313992500305,0.40079402923583984,-1.306205153465271
1731409621536515000,3.30951513671875,-0.637336015701294,0.3068893551826477,-1.2715110778808594
1731409621546536000,3.319535888671875,-0.6402832865715027,0.06423784047365189,-1.240844488143921
1731409621556557000,3.32955712890625,-0.6279454231262207,-0.16339798271656036,-1.178446650505066
1731409621566577000,3.339576904296875,-0.6222350597381592,-0.3012213706970215,-1.0732816457748413
1731409621576598000,3.349597900390625,-0.6355341076850891,-0.2948760986328125,-0.9277313351631165
1731409621586619000,3.359618896484375,-0.6578460335731506,-0.20181940495967865,-0.7418434619903564
1731409621596639000,3.369638916015625,-0.6646943688392639,-0.08702198415994644,-0.5370469093322754
1731409621606660000,3.37966015625,-0.6608940362930298,0.025782594457268715,-0.31673187017440796
1731409621616681200,3.38968115234375,-0.6051045656204224,0.05694903805851936,-0.11079335957765579
1731409621626702000,3.3997021484375,-0.536255955696106,0.01636858657002449,0.06350520253181458
1731409621636722200,3.40972216796875,-0.47852611541748047,-0.06383517384529114,0.19947636127471924
1731409621646743000,3.419742919921875,-0.43400365114212036,-0.15651796758174896,0.29282522201538086
1731409621656764000,3.429763916015625,-0.39394649863243103,-0.19841961562633514,0.36374759674072266
1731409621666785000,3.439784912109375,-0.3551591634750366,-0.19724595546722412,0.41809630393981934
1731409621676805000,3.44980517578125,-0.3453563451766968,-0.14856258034706116,0.4632917642593384
1731409621686826000,3.459825927734375,-0.34833747148513794,-0.10125897824764252,0.5007768273353577
1731409621696846800,3.469846923828125,-0.33706989884376526,-0.05564914643764496,0.5629429817199707
1731409621706867000,3.479866943359375,-0.3330461382865906,0.0392209067940712,0.6420806646347046
1731409621716888000,3.48988818359375,-0.3239724934101105,0.12865199148654938,0.7089753150939941
1731409621726909000,3.499908935546875,-0.3053460717201233,0.12653397023677826,0.732980489730835
1731409621736930000,3.509929931640625,-0.3032080829143524,0.08522914350032806,0.7316755652427673
1731409621746950100,3.5199501953125,-0.32042595744132996,0.02894323505461216,0.7337304353713989
1731409621756971000,3.529970947265625,-0.3411352336406708,-0.04896887391805649,0.7439415454864502
1731409621766992100,3.5399921875,-0.35024482011795044,-0.0922982394695282,0.7751308679580688
1731409621777013000,3.550012939453125,-0.35587048530578613,-0.08312364667654037,0.8069931864738464
1731409621787033000,3.560033203125,-0.3632482588291168,-0.032755281776189804,0.8073849678039551
1731409621797054000,3.570053955078125,-0.3686099946498871,0.021107416599988937,0.7557398676872253
1731409621807075000,3.580074951171875,-0.35813578963279724,0.06272170692682266,0.6705533266067505
1731409621817095200,3.59009521484375,-0.3593432605266571,0.08706379681825638,0.5780364274978638
1731409621827116000,3.600115966796875,-0.4126453697681427,0.08429810404777527,0.4929282069206238
1731409621837137000,3.610136962890625,-0.4690002501010895,0.09213578701019287,0.4226500391960144
1731409621847158000,3.620157958984375,-0.4869968295097351,0.12134453654289246,0.35666969418525696
1731409621857177900,3.630177734375,-0.4879142642021179,0.18340125679969788,0.2910020053386688
1731409621867199000,3.640198974609375,-0.526228666305542,0.2832000255584717,0.25064846873283386
1731409621877220000,3.65022021484375,-0.5822956562042236,0.36937376856803894,0.23070138692855835
1731409621887241200,3.6602412109375,-0.6320173740386963,0.42521122097969055,0.20728421211242676
1731409621897261000,3.670260986328125,-0.6642163395881653,0.4777093231678009,0.1727675199508667
1731409621907282200,3.6802822265625,-0.6678113341331482,0.5131421089172363,0.12329529970884323
1731409621917303000,3.690302978515625,-0.6348616480827332,0.542902946472168,0.09324312955141068
1731409621927323100,3.7003232421875,-0.6056259870529175,0.5694584250450134,0.10249441862106323
1731409621937344000,3.710343994140625,-0.6072787642478943,0.5483072996139526,0.13762657344341278
1731409621947365000,3.720365234375,-0.5846115350723267,0.4825938045978546,0.19701293110847473
1731409621957386000,3.730385986328125,-0.5263932347297668,0.3683830797672272,0.26847806572914124
1731409621967406000,3.740406005859375,-0.4727798104286194,0.19787685573101044,0.35732245445251465
1731409621977427000,3.750427001953125,-0.4281952977180481,0.03141438215970993,0.43629103899002075
1731409621987448000,3.760447998046875,-0.3872779607772827,-0.11235743761062622,0.4876714050769806
1731409621997469000,3.770468994140625,-0.33871519565582275,-0.20597313344478607,0.4963597059249878
1731409622007489000,3.780489013671875,-0.27082589268684387,-0.26647135615348816,0.47143489122390747
1731409622017510000,3.790510009765625,-0.2222898006439209,-0.28363037109375,0.4325687289237976
1731409622027531300,3.80053125,-0.201400488615036,-0.29018521308898926,0.35733097791671753
1731409622037552000,3.81055224609375,-0.1741025596857071,-0.26876434683799744,0.24343742430210114
1731409622047572200,3.820572265625,-0.15615151822566986,-0.2053864449262619,0.12510758638381958
1731409622057593000,3.830593017578125,-0.16936559975147247,-0.13304167985916138,0.037940990179777145
1731409622067614000,3.840614013671875,-0.20055626332759857,-0.07716402411460876,-0.0065407236106693745
1731409622077634000,3.850634033203125,-0.23299357295036316,-0.05088981240987778,-0.04237595200538635
1731409622087655200,3.8606552734375,-0.2635951638221741,-0.16331090033054352,-0.15513712167739868
1731409622097676000,3.870676025390625,-0.3237279951572418,-0.489102840423584,-0.37507668137550354
1731409622107697000,3.88069677734375,-0.3904319405555725,-0.8650000691413879,-0.5976839065551758
1731409622117717000,3.890717041015625,-0.38023921847343445,-1.109256386756897,-0.7343504428863525
1731409622127738000,3.900738037109375,-0.2573167383670807,-1.2377320528030396,-0.7875473499298096
1731409622137759000,3.910759033203125,-0.10742419213056564,-1.2100788354873657,-0.7908443212509155
1731409622147779000,3.920779052734375,-0.047329965978860855,-1.1246726512908936,-0.7894014120101929
1731409622157800000,3.930800048828125,-0.05945613607764244,-0.9877907037734985,-0.8064166307449341
1731409622167821000,3.940821044921875,-0.056463807821273804,-0.7626286745071411,-0.8002690076828003
1731409622177842200,3.95084228515625,0.04537200927734375,-0.440679132938385,-0.7476140260696411
1731409622187862300,3.9608623046875,0.19529412686824799,-0.09769193828105927,-0.6575336456298828
1731409622197883100,3.970883056640625,0.32419246435165405,0.22742676734924316,-0.5552592277526855
1731409622207904000,3.980904052734375,0.39374515414237976,0.44842520356178284,-0.47367435693740845
1731409622217925000,3.990925048828125,0.3816448152065277,0.5318910479545593,-0.4137122333049774
1731409622227945200,4.0009453125,0.30283123254776,0.44450822472572327,-0.3814277946949005
1731409622237966000,4.010966064453125,0.16358919441699982,0.2332841157913208,-0.3907504379749298
1731409622247987000,4.020987060546875,0.01667431741952896,0.043471310287714005,-0.43770623207092285
1731409622258008000,4.031008056640625,-0.09088809788227081,-0.029268939048051834,-0.4719257354736328
1731409622268028000,4.04102783203125,-0.11303015053272247,-0.04204225912690163,-0.46142515540122986
1731409622278049000,4.051049072265625,-0.06215152144432068,-0.06376539915800095,-0.37867727875709534
1731409622288070000,4.06106982421875,-0.011787683703005314,-0.12280980497598648,-0.23541811108589172
1731409622298090000,4.071090087890625,0.0018351842882111669,-0.18396690487861633,-0.029497971758246422
1731409622308110800,4.08111083984375,-0.03369404748082161,-0.22710105776786804,0.22166049480438232
1731409622318132000,4.091132080078125,-0.09744559973478317,-0.3051665723323822,0.4511551856994629
1731409622328153000,4.101153076171875,-0.17818118631839752,-0.3690187931060791,0.6033756136894226
1731409622338173200,4.111173095703125,-0.27283525466918945,-0.3748500347137451,0.6469481587409973
1731409622348194000,4.121194091796875,-0.30522170662879944,-0.27085280418395996,0.6063115000724792
1731409622358215200,4.131215087890625,-0.25505146384239197,-0.06398644298315048,0.5094802975654602
1731409622368236000,4.141236083984375,-0.19320593774318695,0.12717287242412567,0.3624761998653412
1731409622378256100,4.151256103515625,-0.1655612736940384,0.22140643000602722,0.1963982731103897
1731409622388277000,4.161277099609375,-0.17282770574092865,0.2279849648475647,0.013760287314653397
1731409622398298000,4.171298095703125,-0.23164574801921844,0.15938672423362732,-0.15999871492385864
1731409622408318000,4.18131787109375,-0.3255954086780548,0.1023026704788208,-0.25543203949928284
1731409622418339000,4.191339111328125,-0.3422684073448181,0.018002701923251152,-0.23509161174297333
1731409622428360000,4.20135986328125,-0.23240767419338226,-0.14385490119457245,-0.11091293394565582
1731409622438381000,4.211381103515625,-0.12346388399600983,-0.3521559238433838,0.07547558099031448
1731409622448401000,4.22140087890625,-0.09243352711200714,-0.48472699522972107,0.22886061668395996
1731409622458422000,4.231422119140625,-0.1059754341840744,-0.5731441974639893,0.25105246901512146
1731409622468443100,4.241443115234375,-0.1401270180940628,-0.6243610978126526,0.14826563000679016
1731409622478464000,4.251464111328125,-0.17758624255657196,-0.6304168105125427,0.007781490217894316
1731409622488484000,4.261484130859375,-0.19224295020103455,-0.5871841311454773,-0.09405273199081421
1731409622498505200,4.271505126953125,-0.20000818371772766,-0.532350480556488,-0.11812157928943634
1731409622508526000,4.281526123046875,-0.21131756901741028,-0.5350682139396667,-0.07501885294914246
1731409622518546200,4.291546142578125,-0.16252392530441284,-0.6058217287063599,0.0015643407823517919
1731409622528567000,4.301567138671875,-0.11090494692325592,-0.670585572719574,0.07856538146734238
1731409622538588200,4.311588134765625,-0.1797356754541397,-0.8060975670814514,0.14713379740715027
1731409622548609000,4.321609130859375,-0.2908371686935425,-1.0101934671401978,0.25412362813949585
1731409622558629000,4.331629150390625,-0.2154446691274643,-1.066538691520691,0.36338192224502563
1731409622568650000,4.34164990234375,-0.053705040365457535,-0.9803836345672607,0.3787393271923065
1731409622578671000,4.351671142578125,0.09012030810117722,-0.8311203718185425,0.28657957911491394
1731409622588692000,4.36169189453125,0.17148280143737793,-0.6618645191192627,0.1349029541015625
1731409622598712000,4.371712158203125,0.19944679737091064,-0.4642462432384491,-0.024758076295256615
1731409622608733700,4.381733642578125,0.20671749114990234,-0.30127382278442383,-0.1451111137866974
1731409622618754800,4.3917548828125,0.21137163043022156,-0.19973069429397583,-0.21463799476623535
1731409622628776000,4.40177587890625,0.19952882826328278,-0.13877466320991516,-0.23670442402362823
1731409622638795800,4.411795654296875,0.17213714122772217,-0.10351334512233734,-0.25794312357902527
1731409622648817000,4.42181689453125,0.15370061993598938,-0.09542398899793625,-0.27604997158050537
1731409622658837800,4.431837646484375,0.1461569368839264,-0.13150103390216827,-0.29486972093582153
1731409622668857900,4.44185791015625,0.15608254075050354,-0.15861760079860687,-0.31062257289886475
1731409622678878700,4.451878662109375,0.21674349904060364,-0.15356159210205078,-0.3305691182613373
1731409622688899800,4.46189990234375,0.2617618441581726,-0.1134655773639679,-0.34577658772468567
1731409622698920700,4.471920654296875,0.23578083515167236,-0.024881647899746895,-0.3575746417045593
1731409622708940800,4.48194091796875,0.17420722544193268,0.05477003753185272,-0.37532806396484375
1731409622718961700,4.491961669921875,0.10441668331623077,0.08850376307964325,-0.38564276695251465
1731409622728982800,4.501982666015625,0.045937396585941315,0.053708769381046295,-0.37848925590515137
1731409622739003600,4.512003662109375,0.003260508179664612,0.009279252029955387,-0.3134910762310028
1731409622749023700,4.522023681640625,-0.03309324011206627,-0.03742992877960205,-0.1945444494485855
1731409622759044600,4.532044677734375,-0.08758178353309631,-0.03786855190992355,-0.05896424874663353
1731409622769066000,4.54206591796875,-0.15117007493972778,0.04611050337553024,0.05694957077503204
1731409622779085600,4.55208544921875,-0.21577969193458557,0.17151209712028503,0.11178245395421982
1731409622789107000,4.56210693359375,-0.2626800835132599,0.2691585123538971,0.0988546758890152
1731409622799127800,4.5721279296875,-0.3084627687931061,0.3282015919685364,0.05874986574053764
1731409622809148700,4.582148681640625,-0.35597196221351624,0.34978994727134705,0.026271285489201546
1731409622819168800,4.592168701171875,-0.3748798668384552,0.32318124175071716,0.006595850922167301
1731409622829190000,4.60218994140625,-0.3907240927219391,0.2617453336715698,-0.018400046974420547
1731409622839210800,4.612210693359375,-0.42278507351875305,0.17503678798675537,-0.04098924621939659
1731409622849231600,4.622231689453125,-0.4498092234134674,0.07710037380456924,-0.0915600135922432
1731409622859251700,4.632251708984375,-0.4879976212978363,0.02570110186934471,-0.10698290914297104
1731409622869272800,4.64227294921875,-0.5457988977432251,0.0032597091048955917,-0.0996837168931961
1731409622879293700,4.652293701171875,-0.6025338172912598,-0.020356403663754463,-0.061041515320539474
1731409622889313800,4.662313720703125,-0.6379392147064209,-0.05927770584821701,-0.0687633529305458
1731409622899334700,4.672334716796875,-0.6403051614761353,-0.02550402842462063,-0.1038728654384613
1731409622909355500,4.68235546875,-0.5930686593055725,0.008020109497010708,-0.11737855523824692
1731409622919377000,4.692376953125,-0.5351012349128723,0.009823602624237537,-0.05433354526758194
1731409622929397000,4.70239697265625,-0.4971359968185425,-0.03397927060723305,0.0483211949467659
1731409622939417900,4.71241796875,-0.4734698235988617,-0.11271935701370239,0.0793297067284584
1731409622949438700,4.722438720703125,-0.4616453945636749,-0.1921529322862625,0.00891120359301567
1731409622959459800,4.7324599609375,-0.4344204366207123,-0.3093240261077881,-0.09188651293516159
1731409622969479700,4.742479736328125,-0.4106815457344055,-0.4682207405567169,-0.18418768048286438
1731409622979500800,4.752500732421875,-0.4014188051223755,-0.5868227481842041,-0.24514184892177582
1731409622989521700,4.762521728515625,-0.4138150215148926,-0.6186802983283997,-0.23895691335201263
1731409622999541800,4.772541748046875,-0.40932387113571167,-0.5954985022544861,-0.1628967672586441
1731409623009562600,4.782562744140625,-0.3734598755836487,-0.5210639834403992,-0.09457497298717499
1731409623019583700,4.792583740234375,-0.3301145136356354,-0.4187016487121582,-0.08007299900054932
1731409623029604600,4.8026044921875,-0.29971134662628174,-0.3473406434059143,-0.10923407971858978
1731409623039624700,4.812624755859375,-0.29639679193496704,-0.3421999514102936,-0.15917767584323883
1731409623049645600,4.8226455078125,-0.2957049012184143,-0.36030545830726624,-0.2039770931005478
1731409623059666700,4.832666748046875,-0.3076036274433136,-0.3861370384693146,-0.2349853515625
1731409623069687800,4.842687744140625,-0.32107895612716675,-0.4141303300857544,-0.24299800395965576
1731409623079708000,4.8527080078125,-0.34107956290245056,-0.43509528040885925,-0.22908911108970642
1731409623089728800,4.862728759765625,-0.3520488440990448,-0.4421755373477936,-0.20821258425712585
1731409623099750000,4.87275,-0.33815914392471313,-0.3817175328731537,-0.16383926570415497
1731409623109769700,4.882769775390625,-0.3131488561630249,-0.32374051213264465,-0.15113438665866852
1731409623119790800,4.892790771484375,-0.27236759662628174,-0.29246675968170166,-0.1767236441373825
1731409623129811700,4.902811767578125,-0.22790053486824036,-0.27753546833992004,-0.1904682070016861
1731409623139832800,4.912832763671875,-0.18409553170204163,-0.27941858768463135,-0.17895297706127167
1731409623149852700,4.922852783203125,-0.16097716987133026,-0.2914606034755707,-0.16094627976417542
1731409623159873800,4.932873779296875,-0.13270558416843414,-0.2822982668876648,-0.12836968898773193
1731409623169894700,4.942894775390625,-0.10720448195934296,-0.25995755195617676,-0.10745508968830109
1731409623179915800,4.952915771484375,-0.08358730375766754,-0.223686084151268,-0.08300992846488953
1731409623189935600,4.962935546875,-0.053645119071006775,-0.18644577264785767,-0.05637805536389351
1731409623199956700,4.972956787109375,-0.024922925978899002,-0.15308116376399994,-0.029941121116280556
1731409623209977900,4.982977783203125,0.013341105543076992,-0.10835763067007065,-0.013218067586421967
1731409623219997700,4.992997802734375,0.06546103209257126,-0.04803436994552612,0.0017651431262493134
1731409623230018800,5.003018798828125,0.10940798372030258,-0.00013981595111545175,0.02683614194393158
1731409623240040000,5.0130400390625,0.15094158053398132,0.04494616761803627,0.08371274173259735
1731409623250060800,5.023060791015625,0.19673143327236176,0.10967722535133362,0.19121655821800232
1731409623260081000,5.033080810546875,0.27400490641593933,0.21464012563228607,0.33541661500930786
1731409623270101800,5.043101806640625,0.34704798460006714,0.37681466341018677,0.4018220007419586
1731409623280123000,5.053122802734375,0.3794671595096588,0.48803970217704773,0.32612672448158264
1731409623290143700,5.063143798828125,0.3793334662914276,0.47401124238967896,0.16657060384750366
1731409623300163800,5.073163818359375,0.37118420004844666,0.38224297761917114,0.02694905921816826
1731409623310184700,5.083184814453125,0.3525628447532654,0.32150933146476746,-0.020471720024943352
1731409623320205600,5.09320556640625,0.3471028208732605,0.29284945130348206,0.0010671286145225167
1731409623330225700,5.1032255859375,0.339847594499588,0.2891843914985657,0.029651900753378868
1731409623340246800,5.113246826171875,0.31853216886520386,0.31962352991104126,0.049070607870817184
1731409623350267600,5.123267578125,0.29082944989204407,0.33301684260368347,0.08473140001296997
1731409623360288800,5.133288818359375,0.2545366883277893,0.3549517095088959,0.1638944000005722
1731409623370308600,5.14330859375,0.23803547024726868,0.4012262523174286,0.21943329274654388
1731409623380329700,5.153329833984375,0.23144280910491943,0.4363307058811188,0.2369036227464676
1731409623390350800,5.163350830078125,0.2252538949251175,0.4504910111427307,0.2343730926513672
1731409623400371700,5.173371826171875,0.21995073556900024,0.4516795873641968,0.243839293718338
1731409623410391800,5.183391845703125,0.19179180264472961,0.4388394057750702,0.2879255414009094
1731409623420412700,5.19341259765625,0.15676698088645935,0.4060644209384918,0.3371647000312805
1731409623430433800,5.203433837890625,0.13494689762592316,0.34539762139320374,0.3745110332965851
1731409623440454000,5.213453857421875,0.12737126648426056,0.29124996066093445,0.3632543683052063
1731409623450474800,5.223474853515625,0.12338797748088837,0.2896925210952759,0.3389072120189667
1731409623460495600,5.23349560546875,0.10351067781448364,0.2972143590450287,0.33482033014297485
1731409623470516700,5.243516845703125,0.09594810009002686,0.329881489276886,0.3502264618873596
1731409623480536600,5.25353662109375,0.10337112843990326,0.35098332166671753,0.3617534041404724
1731409623490557700,5.2635576171875,0.12059193104505539,0.33382564783096313,0.34353578090667725
1731409623500578600,5.27357861328125,0.12747299671173096,0.29166728258132935,0.2902009189128876
1731409623510600000,5.283599853515625,0.11379900574684143,0.2681363821029663,0.218566432595253
1731409623520619500,5.29361962890625,0.08399023860692978,0.27383288741111755,0.15317890048027039
1731409623530641000,5.303640869140625,0.04103425145149231,0.2807174026966095,0.09184975922107697
1731409623540661800,5.313661865234375,0.0035888757556676865,0.2696325480937958,0.034572623670101166
1731409623550681900,5.323681884765625,-0.01296613272279501,0.2231537252664566,0.007355917245149612
1731409623560702700,5.33370263671875,-0.0020610203500837088,0.1541014164686203,0.003930559381842613
1731409623570723800,5.343723876953125,0.013283847831189632,0.0781930685043335,0.017343835905194283
1731409623580744700,5.35374462890625,0.020145481452345848,0.03411216288805008,0.03255021944642067
1731409623590764800,5.363764892578125,0.017316140234470367,0.04374907910823822,0.0325361043214798
1731409623600786200,5.3737861328125,0.0301405917853117,0.09813322126865387,0.015931295230984688
1731409623610807300,5.383807373046875,0.04904291033744812,0.15922348201274872,-0.008362325839698315
1731409623620828200,5.393828125,0.07349978387355804,0.22244451940059662,-0.040577519685029984
1731409623630848300,5.40384814453125,0.08634181320667267,0.252653568983078,-0.06169186159968376
1731409623640869000,5.413869140625,0.09434647858142853,0.2635354995727539,-0.06777451932430267
1731409623650890000,5.423889892578125,0.09839075058698654,0.2636079490184784,-0.055156197398900986
1731409623660910000,5.43391015625,0.09539709240198135,0.24940715730190277,-0.025511484593153
1731409623670931200,5.44393115234375,0.09292807430028915,0.23750708997249603,-0.004025900736451149
1731409623680952000,5.4539521484375,0.11023223400115967,0.28179919719696045,0.007134342100471258
1731409623690973000,5.463972900390625,0.1313558965921402,0.3440926671028137,0.0001459412305848673
1731409623700993000,5.473992919921875,0.1372888833284378,0.3793553113937378,-0.0165997501462698
1731409623711014100,5.48401416015625,0.15002597868442535,0.37825995683670044,-0.044202081859111786
1731409623721035300,5.49403515625,0.15875636041164398,0.3311161398887634,-0.07029759883880615
1731409623731056000,5.50405615234375,0.15512992441654205,0.2655499279499054,-0.09529829025268555
1731409623741076200,5.514076171875,0.14569035172462463,0.20864082872867584,-0.11493057757616043
1731409623751097000,5.52409716796875,0.14006070792675018,0.15662822127342224,-0.13314633071422577
1731409623761118200,5.5341181640625,0.15212322771549225,0.11359234154224396,-0.13905349373817444
1731409623771138300,5.54413818359375,0.17017892003059387,0.08617909252643585,-0.12356854230165482
1731409623781159200,5.5541591796875,0.1901174783706665,0.10371840745210648,-0.08559026569128036
1731409623791180000,5.564179931640625,0.21331840753555298,0.11879509687423706,-0.031809061765670776
1731409623801201200,5.574201171875,0.2255772054195404,0.12658563256263733,0.017587250098586082
1731409623811221200,5.58422119140625,0.24708674848079681,0.14475984871387482,0.037393711507320404
1731409623821242000,5.5942421875,0.2740861475467682,0.14129693806171417,0.047202933579683304
1731409623831263000,5.604262939453125,0.2875193953514099,0.11131906509399414,0.07645376026630402
1731409623841284000,5.6142841796875,0.2961597442626953,0.09201434254646301,0.1287262886762619
1731409623851304000,5.624303955078125,0.30779722332954407,0.10968148708343506,0.17566636204719543
1731409623861325000,5.634324951171875,0.33501261472702026,0.1459857076406479,0.19332711398601532
1731409623871346200,5.64434619140625,0.3478756844997406,0.20187054574489594,0.1463308483362198
1731409623881366000,5.654365966796875,0.34018152952194214,0.2247992902994156,0.04998407140374184
1731409623891387100,5.66438720703125,0.31696516275405884,0.1902993768453598,-0.035710860043764114
1731409623901408300,5.674408203125,0.2784489393234253,0.12177277356386185,-0.0687423124909401
1731409623911429000,5.68442919921875,0.23111498355865479,0.07710544019937515,-0.05288318917155266
1731409623921449200,5.69444921875,0.1995125710964203,0.05459054186940193,-0.017601896077394485
1731409623931470000,5.704469970703125,0.17759928107261658,0.08045303076505661,0.01137036643922329
1731409623941491200,5.7144912109375,0.1577046811580658,0.12673556804656982,0.033061813563108444
1731409623951512000,5.724511962890625,0.14830797910690308,0.1492542028427124,0.05914827436208725
1731409623961532200,5.7345322265625,0.1326696276664734,0.14827761054039001,0.0752611979842186
1731409623971553000,5.744552978515625,0.10748597979545593,0.1577824354171753,0.10726706683635712
1731409623981574100,5.75457421875,0.06988241523504257,0.1765500009059906,0.16888836026191711
1731409623991594000,5.764593994140625,0.04632462188601494,0.17613428831100464,0.24728596210479736
1731409624001615000,5.774614990234375,0.0322096012532711,0.14841850101947784,0.29407796263694763
1731409624011636000,5.784635986328125,0.009100819937884808,0.10033166408538818,0.29909801483154297
1731409624021657300,5.7946572265625,-0.022823823615908623,0.054175619035959244,0.276867538690567
1731409624031677000,5.804677001953125,-0.056401755660772324,0.019893547520041466,0.2627309560775757
1731409624041698300,5.8146982421875,-0.07598531246185303,-0.004168113227933645,0.26717230677604675
1731409624051719200,5.82471923828125,-0.09500161558389664,-0.026022013276815414,0.2646265923976898
1731409624061740000,5.834739990234375,-0.10578528791666031,-0.04932360723614693,0.26170510053634644
1731409624071760100,5.844760009765625,-0.13803350925445557,-0.08436840772628784,0.2667246460914612
1731409624081781200,5.85478125,-0.19619934260845184,-0.10688676685094833,0.27974241971969604
1731409624091802000,5.864802001953125,-0.22605657577514648,-0.13748756051063538,0.27793973684310913
1731409624101822200,5.874822265625,-0.17565704882144928,-0.15667057037353516,0.2548448145389557
1731409624111843000,5.884843017578125,-0.10085470974445343,-0.16023308038711548,0.21651260554790497
1731409624121864200,5.8948642578125,-0.034016821533441544,-0.16431544721126556,0.16624729335308075
1731409624131885000,5.904885009765625,-0.0002892192860599607,-0.16088342666625977,0.12596645951271057
1731409624141905200,5.9149052734375,-0.0013395700370892882,-0.17113925516605377,0.10250134021043777
1731409624151926000,5.924926025390625,0.004983040504157543,-0.1645449995994568,0.08204054087400436
1731409624161947100,5.934947021484375,0.02684706076979637,-0.14503495395183563,0.05415564775466919
1731409624171968300,5.94496826171875,0.03861770033836365,-0.1331346184015274,0.019629094749689102
1731409624181988400,5.95498828125,0.05684836953878403,-0.11271402984857559,-0.010453440248966217
1731409624192009200,5.96500927734375,0.07932571321725845,-0.10157908499240875,-0.019763851538300514
1731409624202030000,5.975030029296875,0.09571321308612823,-0.09898490458726883,-0.018677547574043274
1731409624212050200,5.98505029296875,0.10307418555021286,-0.07674085348844528,-0.01284362655133009
1731409624222071300,5.9950712890625,0.12316907197237015,-0.06364288926124573,-0.011521633714437485
1731409624232092200,6.005092041015625,0.1497013419866562,-0.048586711287498474,-0.013185043819248676
1731409624242113000,6.015113037109375,0.16591998934745789,-0.0252225324511528,-0.016200540587306023
1731409624252133000,6.025133056640625,0.15165264904499054,-0.0010876349406316876,-0.031555261462926865
1731409624262154000,6.035154052734375,0.13865162432193756,0.026007365435361862,-0.04963626340031624
1731409624272175000,6.045175048828125,0.14439207315444946,0.03284157067537308,-0.06085110083222389
1731409624282195200,6.0551953125,0.14374998211860657,0.019150258973240852,-0.06366553157567978
1731409624292216000,6.065216064453125,0.15174078941345215,0.004690092988312244,-0.0504666343331337
1731409624302237000,6.07523681640625,0.1576857715845108,-0.009827863425016403,-0.03374677896499634
1731409624312258000,6.085258056640625,0.1549224704504013,-0.03356674686074257,-0.01853000931441784
1731409624322278100,6.095278076171875,0.14347274601459503,-0.028327245265245438,-0.006809703074395657
1731409624332299300,6.10529931640625,0.11462591588497162,-0.022602779790759087,-0.00011851066665258259
1731409624342320000,6.115320068359375,0.08977995067834854,-0.02454955130815506,0.014334464445710182
1731409624352341200,6.12534130859375,0.07066191732883453,-0.027297135442495346,0.03675508499145508
1731409624362361000,6.135361083984375,0.057739727199077606,-0.026431873440742493,0.07277966290712357
1731409624372382200,6.14538232421875,0.04541488736867905,-0.013485182076692581,0.10849878191947937
1731409624382403000,6.155403076171875,0.03922197222709656,0.009168464690446854,0.13910995423793793
1731409624392423200,6.165423095703125,0.027642812579870224,0.030169619247317314,0.1619470864534378
1731409624402444000,6.175444091796875,0.018618691712617874,0.038127679377794266,0.18224011361598969
1731409624412465200,6.185465087890625,0.0019417107105255127,0.03269509598612785,0.1951141059398651
1731409624422486000,6.195486083984375,-0.004997421521693468,0.017119597643613815,0.20156987011432648
1731409624432506000,6.205506103515625,-0.006686132401227951,0.010463826358318329,0.2045733779668808
1731409624442527000,6.21552685546875,-0.006480003707110882,0.01840510591864586,0.20043589174747467
1731409624452548000,6.225548095703125,-0.005983323790132999,0.03640274703502655,0.19291938841342926
1731409624462569200,6.2355693359375,-0.01876809448003769,0.05213217809796333,0.19553914666175842
1731409624472589000,6.245589111328125,-0.0289381742477417,0.06310173869132996,0.19324348866939545
1731409624482610200,6.255610107421875,-0.02875734493136406,0.06365194916725159,0.19629360735416412
1731409624492631300,6.26563134765625,-0.008832640014588833,0.04355520009994507,0.19263309240341187
1731409624502651100,6.275651123046875,0.004583300091326237,0.03935539349913597,0.18591314554214478
1731409624512672300,6.28567236328125,0.03137070685625076,0.04171282425522804,0.1723611205816269
1731409624522693000,6.295693115234375,0.04699413850903511,0.05668618157505989,0.1651782989501953
1731409624532714200,6.30571435546875,0.059893958270549774,0.07074820250272751,0.15284866094589233
1731409624542734000,6.315734130859375,0.07233704626560211,0.0766947790980339,0.15534645318984985
1731409624552755200,6.325755126953125,0.0774090364575386,0.07301082462072372,0.17780302464962006
1731409624562776000,6.335776123046875,0.09021192044019699,0.0753147304058075,0.19654954969882965
1731409624572797200,6.345797119140625,0.11751917004585266,0.0881306603550911,0.22650450468063354
1731409624582817000,6.355817138671875,0.13596795499324799,0.1202787384390831,0.2599354386329651
1731409624592838100,6.365838134765625,0.1358872652053833,0.11280404776334763,0.2610297203063965
1731409624602858800,6.375858642578125,0.12775476276874542,0.104726143181324,0.2572331428527832
1731409624612878800,6.38587890625,0.12356747686862946,0.09429267793893814,0.22823290526866913
1731409624622899700,6.395899658203125,0.12303084880113602,0.12592251598834991,0.2198687195777893
1731409624632920800,6.4059208984375,0.11568958312273026,0.12778565287590027,0.2259708195924759
1731409624642941700,6.415941650390625,0.10232104361057281,0.13428936898708344,0.24703428149223328
1731409624652961800,6.4259619140625,0.08750028908252716,0.1372113823890686,0.253927081823349
1731409624662982700,6.435982666015625,0.07868096232414246,0.14205540716648102,0.23104946315288544
1731409624673003800,6.446003662109375,0.06379576027393341,0.1393997073173523,0.20184150338172913
1731409624683025000,6.45602490234375,0.03879746422171593,0.146204873919487,0.18888922035694122
1731409624693045000,6.466044921875,0.016346748918294907,0.170223668217659,0.1993035227060318
1731409624703065900,6.47606591796875,0.012162390165030956,0.2063039094209671,0.2027302086353302
1731409624713086700,6.486086669921875,0.01666100136935711,0.20913298428058624,0.2152172327041626
1731409624723106800,6.49610693359375,0.011322163045406342,0.18935102224349976,0.2196415513753891
1731409624733128000,6.5061279296875,0.009956227615475655,0.18729345500469208,0.2147357314825058
1731409624743148800,6.516148681640625,0.01884585991501808,0.20489536225795746,0.1950906664133072
1731409624753169700,6.526169677734375,0.0398147888481617,0.22505255043506622,0.1835048496723175
1731409624763189800,6.536189697265625,0.07410405576229095,0.2494116872549057,0.17831115424633026
1731409624773211000,6.5462109375,0.12263058125972748,0.26568838953971863,0.17310146987438202
1731409624783231700,6.556231689453125,0.17132115364074707,0.2297876626253128,0.16710536181926727
1731409624793252600,6.566252685546875,0.2039206326007843,0.2087702602148056,0.15925809741020203
1731409624803272700,6.576272705078125,0.23221778869628906,0.2250131368637085,0.13670511543750763
1731409624813293600,6.58629345703125,0.27002909779548645,0.2891646921634674,0.10357672721147537
1731409624823315000,6.59631494140625,0.3141784369945526,0.363016813993454,0.06579312682151794
1731409624833334800,6.606334716796875,0.34964296221733093,0.41714558005332947,0.07170667499303818
1731409624843356000,6.61635595703125,0.3841732442378998,0.4689840078353882,0.1418074667453766
1731409624853376800,6.626376708984375,0.4208225905895233,0.4714373052120209,0.20808689296245575
1731409624863398000,6.63639794921875,0.45510733127593994,0.45551052689552307,0.2257380485534668
1731409624873417700,6.646417724609375,0.46224141120910645,0.4487317204475403,0.19417746365070343
1731409624883438800,6.65643896484375,0.44136568903923035,0.47432124614715576,0.12858514487743378
1731409624893459700,6.666459716796875,0.42401838302612305,0.5449354648590088,0.05416949465870857
1731409624903479800,6.676479736328125,0.41617006063461304,0.6000022292137146,0.0007486145477741957
1731409624913500700,6.686500732421875,0.4110538363456726,0.6156061887741089,-0.013554956763982773
1731409624923521800,6.696521728515625,0.4250706136226654,0.607610821723938,0.0007422229973599315
1731409624933542700,6.706542724609375,0.44987955689430237,0.5816373229026794,0.032041024416685104
1731409624943562800,6.716562744140625,0.4698668420314789,0.5654945373535156,0.07644949853420258
1731409624953583600,6.72658349609375,0.46660125255584717,0.548416793346405,0.09738168120384216
1731409624963604700,6.736604736328125,0.4315817654132843,0.536176860332489,0.08080989122390747
1731409624973625900,6.7466259765625,0.3794296085834503,0.5134119391441345,0.04899630323052406
1731409624983645700,6.756645751953125,0.31795772910118103,0.47171348333358765,0.01948927901685238
1731409624993666800,6.766666748046875,0.25714951753616333,0.4407307803630829,0.0070584421046078205
1731409625003688000,6.77668798828125,0.22340166568756104,0.4608064889907837,0.02641190029680729
1731409625013707800,6.786707763671875,0.21615439653396606,0.5002551078796387,0.0674394965171814
1731409625023729000,6.79672900390625,0.23416829109191895,0.5358418822288513,0.11634764820337296
1731409625033749800,6.806749755859375,0.27125173807144165,0.5945411324501038,0.17295978963375092
1731409625043771000,6.81677099609375,0.3160026967525482,0.6177897453308105,0.20166094601154327
1731409625053790700,6.826790771484375,0.34989383816719055,0.5997918248176575,0.20791298151016235
1731409625063811800,6.836811767578125,0.35722815990448,0.5716344714164734,0.19463074207305908
1731409625073832700,6.846832763671875,0.34073495864868164,0.5383713245391846,0.16223470866680145
1731409625083853800,6.856853759765625,0.31912392377853394,0.483235627412796,0.13211862742900848
1731409625093873700,6.866873779296875,0.28875911235809326,0.43600979447364807,0.1332925409078598
1731409625103894800,6.876894775390625,0.26118233799934387,0.4143758714199066,0.16793973743915558
1731409625113915600,6.88691552734375,0.23819445073604584,0.3652181923389435,0.21106217801570892
1731409625123935700,6.896935791015625,0.22106073796749115,0.34356507658958435,0.27746516466140747
1731409625133956900,6.906956787109375,0.203270822763443,0.38400599360466003,0.3418010175228119
1731409625143978000,6.91697802734375,0.20535847544670105,0.4688255488872528,0.42426684498786926
1731409625153998800,6.926998779296875,0.23377467691898346,0.5719002485275269,0.49020859599113464
1731409625164019000,6.93701904296875,0.2907109260559082,0.6494331359863281,0.5137416124343872
1731409625174039800,6.947039794921875,0.36664724349975586,0.7079310417175293,0.49884337186813354
1731409625184061000,6.95706103515625,0.41536256670951843,0.7493429780006409,0.4473854899406433
1731409625194081800,6.967081787109375,0.4393318295478821,0.7322142720222473,0.36876311898231506
1731409625204102000,6.977101806640625,0.4262075126171112,0.7086045742034912,0.27630189061164856
1731409625214122800,6.987122802734375,0.37536776065826416,0.6952360272407532,0.2066439837217331
1731409625224143600,6.9971435546875,0.3104923665523529,0.6820248961448669,0.17571936547756195
1731409625234164700,7.007164794921875,0.25095659494400024,0.6955231428146362,0.15803037583827972
1731409625244184800,7.017184814453125,0.19758790731430054,0.6745201349258423,0.14903555810451508
1731409625254205700,7.027205810546875,0.14666667580604553,0.6921014785766602,0.14135313034057617
1731409625264226600,7.0372265625,0.1097925454378128,0.719445526599884,0.16287733614444733
1731409625274246700,7.04724658203125,0.08651624619960785,0.6985418200492859,0.1589323878288269
1731409625284267800,7.057267822265625,0.06297603249549866,0.6461840867996216,0.1365663707256317
1731409625294289000,7.067288818359375,0.028865203261375427,0.6276207566261292,0.12469106912612915
1731409625304309800,7.077309814453125,-0.010304835624992847,0.6355341076850891,0.12289848923683167
1731409625314329900,7.087329833984375,-0.03771462291479111,0.5964836478233337,0.13185229897499084
1731409625324350700,7.097350830078125,-0.061155766248703,0.5366455912590027,0.13011007010936737
1731409625334371800,7.107371826171875,-0.07851691544055939,0.4800659418106079,0.09394620358943939
1731409625344392700,7.117392822265625,-0.09935881197452545,0.41552823781967163,0.02123444899916649
1731409625354412800,7.127412841796875,-0.11954530328512192,0.3422929048538208,-0.04404362291097641
1731409625364433700,7.13743359375,-0.12637338042259216,0.27242034673690796,-0.09623438864946365
1731409625374454800,7.147454833984375,-0.12105158716440201,0.21602444350719452,-0.1271989643573761
1731409625384475000,7.157474853515625,-0.1009037122130394,0.1695765107870102,-0.14334118366241455
1731409625394495700,7.167495849609375,-0.06108226254582405,0.12572170794010162,-0.15851134061813354
1731409625404516600,7.1775166015625,-0.01022920198738575,0.1196795254945755,-0.15717443823814392
1731409625414538000,7.1875380859375,0.029634857550263405,0.12482316046953201,-0.13370560109615326
1731409625424557600,7.1975576171875,0.04703328758478165,0.12358824908733368,-0.11170895397663116
1731409625434579000,7.207578857421875,0.04598080739378929,0.09786637872457504,-0.10520311444997787
1731409625444599800,7.217599853515625,0.034138262271881104,0.026378611102700233,-0.10672884434461594
1731409625454620000,7.227619873046875,0.01942909136414528,-0.05395910516381264,-0.11706403642892838
1731409625464640800,7.237640869140625,0.0098038949072361,-0.11939377337694168,-0.14741182327270508
1731409625474662000,7.247661865234375,0.014703844673931599,-0.1599007248878479,-0.17135711014270782
1731409625484682800,7.257682861328125,0.03326474502682686,-0.22283734381198883,-0.17238615453243256
1731409625494702800,7.267702880859375,0.05991340056061745,-0.29881784319877625,-0.17267750203609467
1731409625504723700,7.2777236328125,0.09798435121774673,-0.353115975856781,-0.1777534782886505
1731409625514744800,7.287744873046875,0.14047855138778687,-0.40774860978126526,-0.21233277022838593
1731409625524765700,7.297765625,0.17966243624687195,-0.47267061471939087,-0.274851530790329
1731409625534785800,7.307785888671875,0.2077084481716156,-0.5259785652160645,-0.3297792375087738
1731409625544806700,7.317806640625,0.2203400880098343,-0.56471186876297,-0.35897839069366455
1731409625554827800,7.327827880859375,0.2383241504430771,-0.6121835112571716,-0.3634229600429535
1731409625564849000,7.337848876953125,0.2636745274066925,-0.6770056486129761,-0.3725240230560303
1731409625574868700,7.34786865234375,0.2704243063926697,-0.7156835198402405,-0.3918575346469879
1731409625584889900,7.357889892578125,0.2540133595466614,-0.7425750494003296,-0.4364721179008484
1731409625594911000,7.367910888671875,0.2285279780626297,-0.762873113155365,-0.48171016573905945
1731409625604930300,7.377930419921875,0.19078326225280762,-0.7410871386528015,-0.512415885925293
1731409625614951400,7.387951416015625,0.14171957969665527,-0.722601592540741,-0.5104802846908569
1731409625624972300,7.39797216796875,0.08607389777898788,-0.7096666693687439,-0.5151682496070862
1731409625634993400,7.407993408203125,0.041073136031627655,-0.7149314284324646,-0.5235137939453125
1731409625645013200,7.41801318359375,-0.01179167814552784,-0.7458198666572571,-0.5557069182395935
1731409625655034400,7.428034423828125,-0.08544565737247467,-0.7924744486808777,-0.5970085263252258
1731409625665055200,7.43805517578125,-0.15256556868553162,-0.8195814490318298,-0.6250710487365723
1731409625675076600,7.44807666015625,-0.20824241638183594,-0.8285443186759949,-0.6246364116668701
1731409625685096200,7.45809619140625,-0.24078544974327087,-0.8285344243049622,-0.6127943992614746
1731409625695117600,7.46811767578125,-0.25743499398231506,-0.8110449314117432,-0.5908329486846924
1731409625705138400,7.478138427734375,-0.27312394976615906,-0.7816465497016907,-0.5564590096473694
1731409625715158500,7.488158447265625,-0.28217390179634094,-0.7201677560806274,-0.5079079866409302
1731409625725179400,7.498179443359375,-0.30383631587028503,-0.6597520709037781,-0.4630400836467743
1731409625735200500,7.508200439453125,-0.32795870304107666,-0.6278610229492188,-0.43287259340286255
1731409625745221400,7.518221435546875,-0.35967135429382324,-0.6063234806060791,-0.4006648659706116
1731409625755241500,7.528241455078125,-0.38697993755340576,-0.613724946975708,-0.3718790113925934
1731409625765262300,7.538262451171875,-0.4142746925354004,-0.6492336392402649,-0.33717775344848633
1731409625775283500,7.548283447265625,-0.4322451651096344,-0.6571158170700073,-0.28998202085494995
1731409625785304300,7.55830419921875,-0.4466579258441925,-0.6314107179641724,-0.24260997772216797
1731409625795324400,7.568324462890625,-0.4588956832885742,-0.5913978219032288,-0.20397204160690308
1731409625805345300,7.57834521484375,-0.45865893363952637,-0.5416374206542969,-0.17186576128005981
1731409625815366100,7.5883662109375,-0.44200724363327026,-0.4985940754413605,-0.14698359370231628
1731409625825386200,7.59838623046875,-0.4363301694393158,-0.4657280147075653,-0.11336224526166916
1731409625835407400,7.608407470703125,-0.43306779861450195,-0.425624817609787,-0.07470619678497314
1731409625845428500,7.618428466796875,-0.41734078526496887,-0.3676762878894806,-0.04860668256878853
1731409625855449300,7.628449462890625,-0.39400243759155273,-0.32280442118644714,-0.0375007688999176
1731409625865469400,7.638469482421875,-0.3600276708602905,-0.2914222478866577,-0.05980660766363144
1731409625875490300,7.648490234375,-0.3379628658294678,-0.24565130472183228,-0.058813516050577164
1731409625885511400,7.658511474609375,-0.3241919279098511,-0.21220839023590088,-0.030845796689391136
1731409625895532300,7.6685322265625,-0.30799829959869385,-0.19965559244155884,0.020865334197878838
1731409625905552400,7.678552490234375,-0.281536340713501,-0.22533512115478516,0.025849707424640656
1731409625915573200,7.6885732421875,-0.24982021749019623,-0.20221328735351562,0.01124839298427105
1731409625925594400,7.698594482421875,-0.21831955015659332,-0.14721980690956116,0.002606702037155628
1731409625935615200,7.708615234375,-0.18846365809440613,-0.08764410018920898,0.01853693276643753
1731409625945635300,7.71863525390625,-0.16183629631996155,-0.02647208794951439,0.06532388180494308
1731409625955656200,7.72865625,-0.1305108666419983,-0.009858756326138973,0.10298284143209457
1731409625965677300,7.73867724609375,-0.10584014654159546,0.00018562232435215265,0.0875740572810173
1731409625975697200,7.748697265625,-0.09158557653427124,0.021577730774879456,0.04026113823056221
1731409625985718500,7.758718505859375,-0.09499229490756989,0.038656581193208694,0.014886004850268364
1731409625995739400,7.768739501953125,-0.1078934445977211,0.0522882379591465,0.024524517357349396
1731409626005760500,7.778760498046875,-0.12135705351829529,0.06264767050743103,0.05182325094938278
1731409626015780400,7.7887802734375,-0.12951511144638062,0.0827457457780838,0.07534029334783554
1731409626025801500,7.798801513671875,-0.1314765363931656,0.09838809072971344,0.09575022757053375
1731409626035822300,7.808822265625,-0.1277768760919571,0.11215556412935257,0.12087848037481308
1731409626045843500,7.818843505859375,-0.12441889196634293,0.11855647712945938,0.15918858349323273
1731409626055863300,7.82886328125,-0.1327308863401413,0.12751854956150055,0.19576044380664825
1731409626065884400,7.838884521484375,-0.13858558237552643,0.1369709074497223,0.21454346179962158
1731409626075905300,7.8489052734375,-0.13766145706176758,0.1630842536687851,0.22262002527713776
1731409626085925400,7.85892529296875,-0.12884266674518585,0.19335561990737915,0.23063987493515015
1731409626095946200,7.8689462890625,-0.11835620552301407,0.20048542320728302,0.2419378012418747
1731409626105967400,7.87896728515625,-0.09868104010820389,0.2187051773071289,0.2533544898033142
1731409626115988500,7.888988525390625,-0.07939575612545013,0.25196006894111633,0.2600723206996918
1731409626126008300,7.89900830078125,-0.05907690152525902,0.26313602924346924,0.25120559334754944
1731409626136029400,7.909029541015625,-0.03782620653510094,0.2527526319026947,0.25111985206604004
1731409626146050600,7.919050537109375,-0.014214089140295982,0.2559737265110016,0.26798802614212036
1731409626156071400,7.929071533203125,-0.0035289546940475702,0.25812822580337524,0.2693089544773102
1731409626166091500,7.939091552734375,0.007367368787527084,0.2677725851535797,0.2332228720188141
1731409626176112400,7.9491123046875,0.014303038828074932,0.2670322358608246,0.20620962977409363
1731409626186133500,7.959133544921875,0.021830996498465538,0.23888155817985535,0.21253250539302826
1731409626196153300,7.9691533203125,0.014889733865857124,0.21894939243793488,0.23525166511535645
1731409626206174500,7.979174560546875,0.012146145105361938,0.2162734419107437,0.24734161794185638
1731409626216195300,7.9891953125,-0.0010367685463279486,0.2015669345855713,0.24680152535438538
1731409626226216200,7.99921630859375,-0.01997983269393444,0.18195195496082306,0.24289759993553162
1731409626236236300,8.009236328125,-0.02918318472802639,0.16513089835643768,0.24260865151882172
1731409626246257400,8.01925732421875,-0.03146445006132126,0.1588229387998581,0.2383425235748291
1731409626256278300,8.0292783203125,-0.04307263717055321,0.1597774177789688,0.23085078597068787
1731409626266299400,8.03929931640625,-0.05606939271092415,0.16433674097061157,0.2236645221710205
1731409626276319200,8.0493193359375,-0.06385647505521774,0.16128556430339813,0.21860291063785553
1731409626286340400,8.05934033203125,-0.0643068179488182,0.1469830572605133,0.20501546561717987
1731409626296361500,8.069361572265626,-0.06671164929866791,0.1315614879131317,0.19220831990242004
1731409626306382300,8.07938232421875,-0.06902141124010086,0.1167689636349678,0.18101398646831512
1731409626316402400,8.08940234375,-0.07668385654687881,0.09610868990421295,0.16846305131912231
1731409626326423300,8.09942333984375,-0.07875606417655945,0.0711415559053421,0.14144021272659302
1731409626336444400,8.1094443359375,-0.08459824323654175,0.033973414450883865,0.12243350595235825
1731409626346464500,8.119464599609374,-0.09785572439432144,0.00014141385327093303,0.10851236432790756
1731409626356485400,8.1294853515625,-0.11453856527805328,-0.014138721860945225,0.09325910359621048
1731409626366506200,8.13950634765625,-0.1328509896993637,-0.018759839236736298,0.07926686108112335
1731409626376527400,8.14952734375,-0.14343146979808807,-0.022038988769054413,0.07315117865800858
1731409626386547200,8.159547119140624,-0.161687970161438,-0.02154257707297802,0.06504690647125244
1731409626396568300,8.169568359375,-0.1831277459859848,-0.032285500317811966,0.04221855849027634
1731409626406589200,8.179589111328125,-0.19698390364646912,-0.05143176391720772,0.021700767800211906
1731409626416610600,8.189610595703124,-0.21785350143909454,-0.0622098445892334,0.011287275701761246
1731409626426630100,8.199630126953124,-0.24493731558322906,-0.07519195228815079,-0.002029328839853406
1731409626436651500,8.209651611328125,-0.2751902937889099,-0.09391477704048157,-0.0072866748087108135
1731409626446672400,8.21967236328125,-0.2994951009750366,-0.11740013211965561,0.004337490536272526
1731409626456692500,8.2296923828125,-0.3243389427661896,-0.13734987378120422,0.022703714668750763
1731409626466713300,8.23971337890625,-0.3437693417072296,-0.13979464769363403,0.03834765404462814
1731409626476734500,8.249734375,-0.34991833567619324,-0.14567171037197113,0.05452502891421318
1731409626486755300,8.25975537109375,-0.33875781297683716,-0.16728806495666504,0.06769409030675888
1731409626496775400,8.269775390625,-0.3378238379955292,-0.18267421424388885,0.06858838349580765
1731409626506796300,8.27979638671875,-0.35132500529289246,-0.19038645923137665,0.053401973098516464
1731409626516817400,8.2898173828125,-0.35874563455581665,-0.1856476217508316,0.02761831134557724
1731409626526838300,8.29983837890625,-0.36300429701805115,-0.17287564277648926,0.011490208096802235
1731409626536858400,8.3098583984375,-0.3583672046661377,-0.16995520889759064,0.0052203284576535225
1731409626546879200,8.319879150390625,-0.3500509560108185,-0.16307653486728668,0.0025712819769978523
1731409626556900400,8.329900390625,-0.3352847993373871,-0.1522984653711319,0.002208026824519038
1731409626566920200,8.339920166015625,-0.3171081840991974,-0.1517634242773056,-0.012007128447294235
1731409626576941600,8.349941650390624,-0.300405889749527,-0.13443930447101593,0.0008812400046736002
1731409626586962400,8.35996240234375,-0.2841923236846924,-0.10712645202875137,0.0007611314067617059
1731409626596983600,8.369983642578125,-0.27701056003570557,-0.1165042445063591,0.0015566176734864712
1731409626607007500,8.380007568359375,-0.2553803622722626,-0.1547168791294098,-0.013351225294172764
1731409626617028400,8.3900283203125,-0.2349427342414856,-0.15503326058387756,-0.03556598350405693
1731409626627049500,8.400049560546876,-0.22320646047592163,-0.14236752688884735,-0.04465215653181076
1731409626637070600,8.410070556640624,-0.20787356793880463,-0.1141878217458725,-0.03179095312952995
1731409626647090400,8.42009033203125,-0.18398740887641907,-0.09942219406366348,-0.00040746363811194897
1731409626657111600,8.430111572265625,-0.15634699165821075,-0.09367109835147858,0.015499331057071686
1731409626667132700,8.440132568359376,-0.12333685159683228,-0.07876139134168625,0.0036732980515807867
1731409626677153500,8.450153564453124,-0.10086242854595184,-0.06569166481494904,-0.027598870918154716
1731409626687173600,8.460173583984375,-0.0848349928855896,-0.053054165095090866,-0.04408729821443558
1731409626697194500,8.470194580078125,-0.07237033545970917,-0.047079093754291534,-0.03918175771832466
1731409626707215600,8.480215576171876,-0.0654679536819458,-0.03882143273949623,-0.030761107802391052
1731409626717235500,8.4902353515625,-0.06548633426427841,-0.02936348132789135,-0.038844868540763855
1731409626727256600,8.500256591796875,-0.0766521692276001,-0.030123014003038406,-0.055746354162693024
1731409626737277400,8.51027734375,-0.09930101782083511,-0.04265691712498665,-0.07713073492050171
1731409626747298600,8.520298583984374,-0.13114097714424133,-0.05469759926199913,-0.08500543981790543
1731409626757318400,8.530318359375,-0.1589108258485794,-0.07030505686998367,-0.08540091663599014
1731409626767339500,8.540339599609375,-0.1766703724861145,-0.09329959005117416,-0.07189975678920746
1731409626777360400,8.5503603515625,-0.184307262301445,-0.11225223541259766,-0.04514803737401962
1731409626787381800,8.5603818359375,-0.18242147564888,-0.12088407576084137,-0.005191832315176725
1731409626797401300,8.5704013671875,-0.18400605022907257,-0.10836535692214966,0.032522790133953094
1731409626807422700,8.580422607421875,-0.18248964846134186,-0.08939485996961594,0.05486724153161049
1731409626817443600,8.590443603515626,-0.18516026437282562,-0.07053089141845703,0.05475379154086113
1731409626827463700,8.600463623046876,-0.18319246172904968,-0.049429334700107574,0.052560944110155106
1731409626837484500,8.610484619140625,-0.19033879041671753,-0.04128459095954895,0.04586043208837509
1731409626847505700,8.620505615234375,-0.19474951922893524,-0.01980592869222164,0.03916497901082039
1731409626857526500,8.630526611328126,-0.1974709928035736,0.0019805929623544216,0.03845178335905075
1731409626867546600,8.640546630859374,-0.1976480931043625,-0.013112872838973999,0.02195749618113041
1731409626877567500,8.6505673828125,-0.1845024675130844,-0.030940338969230652,0.020066918805241585
1731409626887588600,8.660588623046875,-0.1788341999053955,-0.03507383167743683,0.03922942653298378
1731409626897609500,8.670609375,-0.1608746349811554,-0.041241977363824844,0.05458814278244972
1731409626907629600,8.680629638671874,-0.14979615807533264,-0.04187394678592682,0.06363703310489655
1731409626917650400,8.690650390625,-0.1374151110649109,-0.0341917909681797,0.06746026873588562
1731409626927671600,8.700671630859375,-0.13056492805480957,-0.03050571121275425,0.06258747726678848
1731409626937692700,8.710692626953126,-0.1271936446428299,-0.04132453724741936,0.06868638843297958
1731409626947712800,8.720712646484374,-0.12119593471288681,-0.036548689007759094,0.08178114891052246
1731409626957733600,8.730733642578125,-0.11390819400548935,-0.035532694309949875,0.09228545427322388
1731409626967754500,8.74075439453125,-0.09951940178871155,-0.034336935728788376,0.09598671644926071
1731409626977774600,8.750774658203126,-0.08849497884511948,-0.03341228514909744,0.09103216975927353
1731409626987795700,8.760795654296874,-0.0822187066078186,-0.03444266319274902,0.07799439877271652
1731409626997816600,8.770816650390625,-0.07578104734420776,-0.02298201434314251,0.04959764704108238
1731409627007837400,8.78083740234375,-0.07296235859394073,-0.015127819962799549,0.01595206931233406
1731409627017857500,8.790857421875,-0.07465746253728867,0.0008018778171390295,-0.009912285953760147
1731409627027878400,8.80087841796875,-0.07489368319511414,0.0030312100425362587,-0.028271319344639778
1731409627037899500,8.8108994140625,-0.07246887683868408,0.006102900020778179,-0.03640354797244072
1731409627047920400,8.82092041015625,-0.053099703043699265,0.010162622667849064,-0.03801609203219414
1731409627057940500,8.8309404296875,-0.0387394055724144,0.010121610015630722,-0.04253014922142029
1731409627067961300,8.84096142578125,-0.031619712710380554,0.014533935114741325,-0.05146505683660507
1731409627077982500,8.850982421875,-0.03229881823062897,0.01858833245933056,-0.06095629557967186
1731409627088003600,8.861003662109376,-0.04665139317512512,0.009896306321024895,-0.06672310084104538
1731409627098023700,8.871023681640626,-0.05819220095872879,0.0022471752017736435,-0.06009609252214432
1731409627108044500,8.88104443359375,-0.05568217113614082,-0.014344051480293274,-0.04441699758172035
1731409627118065700,8.891065673828125,-0.052379585802555084,-0.03742566704750061,-0.011683554388582706
1731409627128085500,8.90108544921875,-0.0494258739054203,-0.04494670033454895,0.02334127575159073
1731409627138106600,8.911106689453124,-0.03768346458673477,-0.043711259961128235,0.03291533887386322
1731409627148127500,8.92112744140625,-0.02298068255186081,-0.03333638608455658,0.039084549993276596
1731409627158148600,8.931148681640625,-0.008166050538420677,-0.03291400894522667,0.04108352214097977
1731409627168168400,8.94116845703125,0.008378837257623672,-0.02237934060394764,0.03309084102511406
1731409627178189600,8.951189453125,0.023745808750391006,-0.009275257587432861,0.013466274365782738
1731409627188210400,8.96121044921875,0.03576119244098663,-0.02143205516040325,0.004644020460546017
1731409627198231600,8.9712314453125,0.04493418335914612,-0.028560271486639977,0.0232965350151062
1731409627208251400,8.98125146484375,0.05244962498545647,-0.029283853247761726,0.03699903190135956
1731409627218272500,8.9912724609375,0.06077253818511963,-0.02141900546848774,0.03879186883568764
1731409627228293600,9.001293701171875,0.0715189278125763,-0.013994378969073296,0.021810490638017654
1731409627238314800,9.011314697265625,0.08136942237615585,-0.004471980035305023,0.01811029389500618
1731409627248334600,9.02133447265625,0.09098822623491287,0.03502056747674942,0.05585021525621414
1731409627258355700,9.031355712890624,0.10230586677789688,0.06316458433866501,0.05133908614516258
1731409627268376600,9.04137646484375,0.09982592612504959,0.07253358513116837,0.028918733820319176
1731409627278396700,9.051396728515625,0.08467040956020355,0.04799681901931763,-0.026520824059844017
1731409627288417500,9.06141748046875,0.06180770695209503,0.025357820093631744,-0.07824420183897018
1731409627298438700,9.071438720703124,0.04300925135612488,0.013911554589867592,-0.10614454746246338
1731409627308459500,9.08145947265625,0.02888624370098114,0.013773602433502674,-0.09186414629220963
1731409627318479600,9.091479736328125,0.007923969067633152,0.0073479278944432735,-0.07033780962228775
1731409627328500500,9.10150048828125,-0.002626942005008459,0.01465697307139635,-0.07181719690561295
1731409627338521600,9.111521484375,-0.003858654061332345,0.015512913465499878,-0.07467237114906311
1731409627348542500,9.12154248046875,-0.008851548656821251,0.0026844663079828024,-0.06715959310531616
1731409627358562600,9.1315625,-0.013283581472933292,0.005381183233112097,-0.05445978045463562
1731409627368583400,9.14158349609375,-0.015359248965978622,-0.006945523899048567,-0.03833087906241417
1731409627378604500,9.1516044921875,-0.025059014558792114,-0.013916614465415478,-0.02008982188999653
1731409627388625700,9.161625732421875,-0.03305782005190849,-0.0067511131055653095,-0.007665909361094236
1731409627398645800,9.171645751953125,-0.038115695118904114,-0.011897938326001167,0.0019837887957692146
1731409627408666600,9.18166650390625,-0.04734461382031441,-0.02400626614689827,0.008570319041609764
1731409627418687500,9.1916875,-0.06117920204997063,-0.043655335903167725,0.01661466248333454
1731409627428707600,9.20170751953125,-0.07437223196029663,-0.054009705781936646,0.02082165889441967
1731409627438728400,9.211728515625,-0.08787766098976135,-0.07388913631439209,0.019053319469094276
1731409627448749600,9.22174951171875,-0.1026022732257843,-0.0905621200799942,0.026187928393483162
1731409627458770400,9.2317705078125,-0.11338168382644653,-0.10025469958782196,0.03991119563579559
1731409627468790500,9.24179052734375,-0.12905065715312958,-0.1036321222782135,0.05841803550720215
1731409627478811400,9.251811279296875,-0.1280868649482727,-0.09911859035491943,0.07872837036848068
1731409627488832500,9.26183251953125,-0.1263912320137024,-0.0876278504729271,0.09257840365171432
1731409627498853400,9.271853271484375,-0.1189812496304512,-0.09184124320745468,0.10298177599906921
1731409627508873500,9.28187353515625,-0.10672324895858765,-0.08721905946731567,0.11052384972572327
1731409627518894300,9.291894287109375,-0.10425103455781937,-0.073008693754673,0.12422847747802734
1731409627528915700,9.301915771484374,-0.10117508471012115,-0.07254477590322495,0.10935605317354202
1731409627538936600,9.3119365234375,-0.10338763892650604,-0.08566829562187195,0.08433778584003448
1731409627548956700,9.321956787109375,-0.10020622611045837,-0.07895500212907791,0.07387768477201462
1731409627558977500,9.3319775390625,-0.09150328487157822,-0.07827349752187729,0.06781979650259018
1731409627568998700,9.34199853515625,-0.07832436263561249,-0.08594473451375961,0.07245555520057678
1731409627579018500,9.3520185546875,-0.057790327817201614,-0.09651722013950348,0.09893297404050827
1731409627589039600,9.36203955078125,-0.03798945993185043,-0.09657980501651764,0.11995383352041245
1731409627599060500,9.372060546875,-0.015784289687871933,-0.09341517090797424,0.13240677118301392
1731409627609081300,9.382081298828124,0.0038163098506629467,-0.08538919687271118,0.13937067985534668
1731409627619101200,9.39210107421875,0.016402142122387886,-0.06500669568777084,0.14349883794784546
1731409627629122300,9.402122314453125,0.02551761083304882,-0.0377923846244812,0.12632757425308228
1731409627639143400,9.412143310546876,0.034334272146224976,-0.02058570273220539,0.0797845795750618
1731409627649164500,9.42216455078125,0.02587340958416462,-0.01774650625884533,0.029051093384623528
1731409627659184400,9.432184326171875,0.013617008924484253,-0.044065993279218674,-0.01016768254339695
1731409627669205500,9.44220556640625,0.00003834952076431364,-0.071393221616745,-0.03609701618552208
1731409627679226400,9.452226318359376,-0.00040613205055706203,-0.09419094771146774,-0.052562810480594635
1731409627689247500,9.46224755859375,0.004767591133713722,-0.09529722481966019,-0.06285113096237183
1731409627699267300,9.472267333984375,0.013145895674824715,-0.10168828070163727,-0.06325113773345947
1731409627709288400,9.482288330078125,0.025964489206671715,-0.10023126006126404,-0.057788196951150894
1731409627719309300,9.492309326171876,0.036440033465623856,-0.08727604895830154,-0.05260834842920303
1731409627729329400,9.502329345703124,0.04586149752140045,-0.0758899673819542,-0.03502003476023674
1731409627739350300,9.512350341796875,0.04438477382063866,-0.06814470142126083,-0.009131712839007378
1731409627749371400,9.522371337890625,0.041906170547008514,-0.06065908446907997,0.003614974906668067
1731409627759392300,9.532392333984374,0.03374651074409485,-0.054361507296562195,0.009846239350736141
1731409627769412400,9.542412353515624,0.02093883790075779,-0.058214303106069565,0.010454504750669003
1731409627779433500,9.55243359375,0.007150853984057903,-0.06068039312958717,0.007799599785357714
1731409627789454300,9.562454345703125,-0.010404704138636589,-0.060982126742601395,-0.00615270109847188
1731409627799475500,9.572475341796874,-0.029742715880274773,-0.06779502332210541,-0.020906614139676094
1731409627809495600,9.58249560546875,-0.04541834816336632,-0.06705546379089355,-0.03244609013199806
1731409627819516400,9.592516357421875,-0.060869473963975906,-0.06368816643953323,-0.036005936563014984
1731409627829537300,9.602537353515626,-0.07626600563526154,-0.05305176600813866,-0.03133288770914078
1731409627839558400,9.612558349609374,-0.0911906287074089,-0.034508708864450455,-0.036856550723314285
1731409627849578500,9.62257861328125,-0.09211581200361252,-0.00592659879475832,-0.04751771688461304
1731409627859599400,9.632599365234375,-0.08770827949047089,-0.0028940571937710047,-0.015269233845174313
1731409627869620200,9.6426201171875,-0.08411993831396103,0.005787048954516649,0.036064792424440384
1731409627879640300,9.652640380859374,-0.07901705056428909,0.02437777817249298,0.034977689385414124
1731409627889661400,9.662661376953125,-0.08151110261678696,0.03614708408713341,0.048655420541763306
1731409627899682300,9.672682373046875,-0.0876382365822792,0.035290081053972244,0.029691848903894424
1731409627909703400,9.682703369140626,-0.08969659358263016,0.05112949758768082,0.015852732583880424
1731409627919723300,9.69272314453125,-0.08336333185434341,0.06690073758363724,0.043585825711488724
1731409627929744400,9.702744384765625,-0.06987575441598892,0.07829107344150543,0.11173505336046219
1731409627939765500,9.712765625,-0.059373579919338226,0.062491606920957565,0.13944710791110992
1731409627949786400,9.722786376953126,-0.04436373710632324,0.05703558772802353,0.1392790675163269
1731409627959806500,9.732806396484374,-0.03223463520407677,0.054126884788274765,0.13286057114601135
1731409627969827300,9.742827392578125,-0.016503609716892242,0.05771442875266075,0.14212492108345032
1731409627979848400,9.752848388671875,0.003635747591033578,0.07128802686929703,0.15878964960575104
1731409627989869300,9.762869384765626,0.01329956017434597,0.09375951439142227,0.1507362425327301
1731409627999889400,9.772889404296874,0.013368269428610802,0.11556627601385117,0.11117658764123917
1731409628009910300,9.78291015625,0.010032660327851772,0.11367277055978775,0.06338909268379211
1731409628019931400,9.792931396484375,-0.0006207828409969807,0.09394380450248718,0.025794312357902527
1731409628029952300,9.8029521484375,-0.006956975441426039,0.06731512397527695,0.005004878621548414
1731409628039972400,9.812972412109374,-0.01455816999077797,0.0538451224565506,-0.014300376176834106
1731409628049993200,9.8229931640625,-0.02052897773683071,0.04207022115588188,-0.0329853817820549
1731409628060014600,9.8330146484375,-0.023686952888965607,0.0359627939760685,-0.0359654575586319
1731409628070034200,9.8430341796875,-0.01769297756254673,0.025560220703482628,-0.031619179993867874
1731409628080055600,9.8530556640625,-0.010402839630842209,0.0212435033172369,-0.02365899085998535
1731409628090076400,9.863076416015625,-0.007661914452910423,0.019513513892889023,-0.009552492760121822
1731409628100097500,9.87309765625,-0.004995557479560375,0.016151806339621544,0.011521100997924805
1731409628110117400,9.883117431640626,-0.001591505017131567,0.010713097639381886,0.026501914486289024
1731409628120138500,9.893138427734375,-0.0012799152173101902,0.009586314670741558,0.0386429987847805
1731409628130159400,9.903159423828125,0.003236806020140648,0.00871998816728592,0.05019233003258705
1731409628140180200,9.91318017578125,0.006113552488386631,-0.004972920753061771,0.030361367389559746
1731409628150200300,9.923200439453124,0.0023185480386018753,-0.015864184126257896,0.013566674664616585
1731409628160221400,9.933221435546875,0.004287689458578825,-0.02960130199790001,0.012863600626587868
1731409628170242300,9.9432421875,0.005185707006603479,-0.040874727070331573,0.01949859969317913
1731409628180262400,9.953262451171875,0.010905378498136997,-0.046242330223321915,0.02846892550587654
1731409628190283300,9.963283203125,0.019630160182714462,-0.044552553445100784,0.027578098699450493
1731409628200304400,9.973304443359375,0.028021248057484627,-0.03221013396978378,0.010873420163989067
1731409628210325500,9.983325439453125,0.03026575967669487,-0.0169728584587574,0.0007789746159687638
1731409628220345300,9.993345458984376,0.031157387420535088,-0.006731139495968819,-0.014000504277646542
1731409628230366500,10.003366455078124,0.03169135004281998,-0.0018722022650763392,-0.02857918106019497
1731409628240387300,10.01338720703125,0.03148309141397476,-0.0034530546981841326,-0.023897342383861542
1731409628250408400,10.023408447265625,0.030971230939030647,-0.006963367108255625,-0.010250240564346313
1731409628260428500,10.033428466796876,0.03057495318353176,-0.010920025408267975,0.007561513222754002
1731409628270449400,10.043449462890624,0.02978239580988884,-0.01972789876163006,0.015467905439436436
1731409628280470300,10.05347021484375,0.02527073584496975,-0.01992950029671192,0.02527286671102047
1731409628290491400,10.063491455078125,0.025229722261428833,-0.01549586933106184,0.03063460811972618
1731409628300511500,10.073511474609376,0.0285261832177639,-0.02214232087135315,0.04283694550395012
1731409628310532400,10.083532470703124,0.02918691374361515,-0.025553297251462936,0.050151050090789795
1731409628320553200,10.09355322265625,0.02965376526117325,-0.036129508167505264,0.048413071781396866
1731409628330573300,10.1035732421875,0.02592693828046322,-0.0383889339864254,0.029267074540257454
1731409628340594200,10.11359423828125,0.016393620520830154,-0.04587481543421745,0.009414274245500565
1731409628350615300,10.123615234375,0.016643159091472626,-0.05313192680478096,-0.007897071540355682
1731409628360636400,10.133636474609375,0.015205051749944687,-0.0664282888174057,-0.013647901825606823
1731409628370656500,10.143656494140625,0.017446368932724,-0.06513772159814835,-0.01902375929057598
1731409628380677400,10.153677490234376,0.018337994813919067,-0.05842895433306694,-0.03093021921813488
1731409628390698500,10.163698486328125,0.024356205016374588,-0.05421290546655655,-0.033252228051424026
1731409628400719400,10.17371923828125,0.02617114968597889,-0.047078561037778854,-0.027235083281993866
1731409628410739500,10.183739501953125,0.0311102494597435,-0.038052044808864594,-0.02454422414302826
1731409628420760300,10.19376025390625,0.034630682319402695,-0.020071446895599365,-0.025947444140911102
1731409628430781400,10.203781494140625,0.03573482856154442,-0.001999235013499856,-0.04266570508480072
1731409628440802300,10.21380224609375,0.028297418728470802,0.00010439591278554872,-0.06606689840555191
1731409628450822400,10.223822509765625,0.01218422781676054,0.003727626521140337,-0.058639343827962875
1731409628460843300,10.23384326171875,-0.0026077672373503447,-0.0015193333383649588,-0.04730067029595375
1731409628470864400,10.243864501953125,-0.010786867700517178,-0.03184155374765396,-0.06843791157007217
1731409628480884200,10.25388427734375,-0.020484501495957375,-0.03630261495709419,-0.10432107746601105
1731409628490905300,10.2639052734375,-0.031741417944431305,-0.032578982412815094,-0.1056838184595108
1731409628500926200,10.27392626953125,-0.04390726983547211,-0.017892448231577873,-0.06825628876686096
1731409628510947600,10.283947509765625,-0.05513116344809532,-0.00851199496537447,-0.022415559738874435
1731409628520967400,10.293967529296875,-0.0681348443031311,-0.017781393602490425,-0.003472495824098587
1731409628530988500,10.303988525390626,-0.07141266763210297,-0.015778696164488792,-0.014392254874110222
1731409628541009400,10.314009521484374,-0.08207143098115921,-0.020792629569768906,-0.026186862960457802
1731409628551030300,10.3240302734375,-0.09777556359767914,-0.024290958419442177,-0.027215907350182533
1731409628561050400,10.33405029296875,-0.10802580416202545,-0.025619342923164368,-0.01549240667372942
1731409628571071500,10.344071533203126,-0.1109190583229065,-0.033904172480106354,-0.0035960664972662926
1731409628581092400,10.35409228515625,-0.11582326889038086,-0.011652661487460136,0.013450294733047485
1731409628591113200,10.36411328125,-0.12241219729185104,0.00387303507886827,0.02739114500582218
1731409628601133300,10.37413330078125,-0.12444978207349777,0.01781441643834114,0.0320838987827301
1731409628611151000,10.384151123046875,-0.12932176887989044,0.023433420807123184,0.034214429557323456
1731409628621172200,10.394172119140626,-0.13363848626613617,0.02286643348634243,0.029703300446271896
1731409628631192300,10.4041923828125,-0.13910461962223053,0.01920085959136486,0.03170919418334961
1731409628641213200,10.414213134765625,-0.1474757343530655,0.018274344503879547,0.04285452142357826
1731409628651234000,10.424234130859375,-0.15698376297950745,0.009857690893113613,0.05867263302206993
1731409628661255400,10.43425537109375,-0.16406510770320892,0.001639441936276853,0.07643511891365051
1731409628671275300,10.444275146484374,-0.16441531479358673,0.0014559502014890313,0.08945851027965546
1731409628681296400,10.45429638671875,-0.1592695415019989,-0.0015020228456705809,0.09744533151388168
1731409628691317200,10.464317138671875,-0.15895876288414001,0.0035228293854743242,0.0996972993016243
1731409628701338400,10.47433837890625,-0.16130660474300385,0.009400160051882267,0.09569083899259567
1731409628711358200,10.484358154296874,-0.1600426584482193,0.014790663495659828,0.06042046844959259
1731409628721379300,10.49437939453125,-0.1670560985803604,0.028743498027324677,0.02021259441971779
1731409628731400200,10.504400146484375,-0.16851285099983215,0.03220507502555847,-0.010063819587230682
1731409628741421300,10.51442138671875,-0.1629343181848526,0.028982115909457207,-0.03169987350702286
1731409628751441200,10.524441162109374,-0.1589220017194748,0.026080070063471794,-0.0338708832859993
1731409628761462300,10.534462158203125,-0.15329821407794952,0.021697571501135826,-0.03526611253619194
1731409628771483100,10.544483154296875,-0.14447489380836487,0.015001320280134678,-0.03783872351050377
1731409628781503200,10.554503173828126,-0.1252913475036621,0.01311952993273735,-0.04062012955546379
1731409628791524000,10.564524169921874,-0.11323840916156769,0.015047126449644566,-0.036123648285865784
1731409628801545200,10.574545166015625,-0.09734679013490677,-0.0001424791116733104,-0.024522386491298676
1731409628811566300,10.58456640625,-0.08466801792383194,-0.006412625312805176,-0.012012188322842121
1731409628821586200,10.594586181640626,-0.07202865183353424,-0.0046240463852882385,-0.00947739090770483
1731409628831607300,10.604607177734374,-0.0659361407160759,-0.00035206988104619086,-0.014968829229474068
1731409628841628400,10.61462841796875,-0.05879780277609825,0.008145544677972794,-0.01894572749733925
1731409628851649300,10.624649169921875,-0.05512663349509239,0.02099769376218319,-0.022348714992403984
1731409628861669400,10.63466943359375,-0.05071910470724106,0.017406687140464783,-0.015586149878799915
1731409628871690200,10.644690185546875,-0.03674949333071709,0.010550378821790218,-0.01943734660744667
1731409628881711400,10.65471142578125,-0.026515496894717216,0.009530654177069664,-0.026016419753432274
1731409628891731200,10.664731201171875,-0.017589911818504333,0.011920841410756111,-0.028331506997346878
1731409628901752300,10.67475244140625,-0.013402624055743217,0.006465089973062277,-0.02888144925236702
1731409628911773200,10.684773193359375,-0.0052024852484464645,0.008677910082042217,-0.040945835411548615
1731409628921794300,10.694794189453125,-0.0026176210958510637,0.0036647759843617678,-0.04309314116835594
1731409628931814100,10.704814208984375,0.0007866977830417454,-0.0007922904333099723,-0.04524151235818863
1731409628941835300,10.714835205078124,0.0036759611684828997,0.00026045716367661953,-0.0494474433362484
1731409628951856000,10.724856201171875,0.0075852153822779655,0.007234210614115,-0.05766196548938751
1731409628961877200,10.734877197265625,0.0065172878094017506,0.014097975566983223,-0.05643025413155556
1731409628971897300,10.7448974609375,0.009756756946444511,0.02797943726181984,-0.05807076022028923
1731409628981918200,10.754918212890624,0.015573899261653423,0.032941970974206924,-0.05565127730369568
1731409628991939300,10.764939208984375,0.01464925054460764,0.02671177126467228,-0.051900483667850494
1731409629001960200,10.774960205078125,0.018376344814896584,0.01907568983733654,-0.046661246567964554
1731409629011980300,10.784980224609376,0.021890385076403618,0.01107448898255825,-0.06453851610422134
1731409629022001200,10.795001220703124,0.01895318552851677,0.007714645005762577,-0.10258816182613373
1731409629032022300,10.805022216796875,0.010113620199263096,-0.003453587181866169,-0.11364240944385529
1731409629042042400,10.81504248046875,-0.0016578177455812693,0.009969810023903847,-0.06752151995897293
1731409629052063200,10.825063232421876,0.00038589202449657023,0.00159443449229002,-0.05344751104712486
1731409629062084000,10.835083984375,-0.0008333030855283141,0.0030546458438038826,-0.05216413363814354
1731409629072105200,10.845105224609375,0.007411044556647539,-0.006909038871526718,-0.07822023332118988
1731409629082125300,10.855125244140625,0.0027017768006771803,0.0019108180422335863,-0.10082381963729858
1731409629092146200,10.865146240234376,-0.002667954657226801,0.012710468843579292,-0.09111446142196655
1731409629102167300,10.875167236328124,-0.009579923003911972,0.0223268773406744,-0.06969492882490158
1731409629112188400,10.8851884765625,-0.010691259987652302,0.030544593930244446,-0.05843641236424446
1731409629122208300,10.895208251953125,-0.012040417641401291,0.039271771907806396,-0.06882646679878235
1731409629132229400,10.9052294921875,-0.015244199894368649,0.040039293467998505,-0.08215931802988052
1731409629142250200,10.915250244140625,-0.02069595642387867,0.04243480786681175,-0.09174270182847977
1731409629152270300,10.925270263671875,-0.019476495683193207,0.034141991287469864,-0.08097553998231888
1731409629162291200,10.935291259765625,-0.016560601070523262,0.02815653756260872,-0.06972581893205643
1731409629172312300,10.945312255859376,-0.009976468048989773,0.03398459777235985,-0.05980261415243149
1731409629182333200,10.955333251953125,-0.002922020386904478,0.05036330595612526,-0.0560760535299778
1731409629192353300,10.965353271484375,0.00341577036306262,0.0682578831911087,-0.05086344853043556
1731409629202374100,10.9753740234375,0.011708853766322136,0.06598594039678574,-0.03579075261950493
1731409629212395300,10.985395263671874,0.023805463686585426,0.06166096776723862,-0.023176159709692
1731409629222416100,10.995416015625,0.034868236631155014,0.06106921285390854,-0.01829671487212181
1731409629232436200,11.005436279296875,0.039194539189338684,0.061527278274297714,-0.014336861670017242
1731409629242457000,11.01545703125,0.042031340301036835,0.0691380575299263,-0.01672651618719101
1731409629252478500,11.025478515625,0.04831346869468689,0.08183840662240982,-0.01689802296459675
1731409629262498000,11.035498046875,0.05121578276157379,0.089390330016613,-0.02516261115670204
1731409629272519400,11.04551953125,0.04879923164844513,0.09078769385814667,-0.032288964837789536
1731409629282540300,11.055540283203126,0.048061802983284,0.08032652735710144,-0.0461571104824543
1731409629292561400,11.0655615234375,0.04012424871325493,0.07614190876483917,-0.0626886785030365
1731409629302581200,11.075581298828125,0.03295661881566048,0.0773288756608963,-0.06637236475944519
1731409629312602400,11.085602294921875,0.02678048051893711,0.05866863951086998,-0.07618185132741928
1731409629322623200,11.095623291015626,0.02154683694243431,0.046839144080877304,-0.07901998609304428
1731409629332644400,11.105644287109374,0.023681361228227615,0.047511324286460876,-0.07156473398208618
1731409629342664200,11.115664306640625,0.03261786326766014,0.041603900492191315,-0.05703079700469971
1731409629352685300,11.125685302734375,0.03473187983036041,0.04579465091228485,-0.043234024196863174
1731409629362706200,11.1357060546875,0.03644509240984917,0.05604329705238342,-0.035347603261470795
1731409629372727000,11.14572705078125,0.042092327028512955,0.0593128576874733,-0.029448969289660454
1731409629382747100,11.1557470703125,0.045282527804374695,0.05055132508277893,-0.02070767432451248
1731409629392768300,11.165768310546875,0.04519623890519142,0.03356035798788071,-0.009137039072811604
1731409629402789400,11.175789306640626,0.03845098614692688,0.01739976368844509,0.004810734186321497
1731409629412809200,11.185809326171874,0.036733511835336685,0.0005347627447918057,0.010331999510526657
1731409629422830300,11.195830322265625,0.03941531479358673,-0.014416223391890526,0.009182579815387726
1731409629432851200,11.205851318359375,0.04085448756814003,-0.02744201011955738,0.014956312254071236
1731409629442872300,11.215872314453126,0.03921637684106827,-0.03157763183116913,0.01811455562710762
1731409629452892400,11.225892333984374,0.03946911171078682,-0.03249642252922058,0.021167069673538208
1731409629462913300,11.235913330078125,0.044979993253946304,-0.03960839658975601,0.028810875490307808
1731409629472934100,11.24593408203125,0.05249090492725372,-0.057310160249471664,0.037764955312013626
1731409629482955300,11.255955322265624,0.057546649128198624,-0.07342308759689331,0.0516783744096756
1731409629492975400,11.265975341796874,0.061050038784742355,-0.09625516086816788,0.0650772675871849
1731409629502996200,11.275996337890625,0.06837745755910873,-0.11255264282226562,0.06921502202749252
1731409629513017000,11.28601708984375,0.08133027702569962,-0.11141813546419144,0.06538007408380508
1731409629523037200,11.296037109375,0.09421677887439728,-0.11703047901391983,0.04772863909602165
1731409629533058000,11.30605810546875,0.10233782231807709,-0.12016928195953369,0.03169454634189606
1731409629543079200,11.3160791015625,0.11393588781356812,-0.13088424503803253,0.025007881224155426
1731409629553100300,11.326100341796876,0.12743891775608063,-0.14423520863056183,0.026201244443655014
1731409629563120400,11.336120361328126,0.14114274084568024,-0.15181510150432587,0.02406405657529831
1731409629573141200,11.346141357421875,0.14932477474212646,-0.14570367336273193,0.013420200906693935
1731409629583162400,11.356162353515625,0.15257729589939117,-0.14261174201965332,0.002389654517173767
1731409629593183200,11.366183349609376,0.15041081607341766,-0.13931980729103088,-0.0013004215434193611
1731409629603203300,11.376203369140624,0.14803606271743774,-0.12354937195777893,0.006281331647187471
1731409629613223000,11.386222900390624,0.15180736780166626,-0.09606102108955383,0.02484702691435814
1731409629623243800,11.396243896484375,0.16482622921466827,-0.05582784488797188,0.03959827497601509
1731409629633265000,11.406264892578125,0.1826518326997757,-0.017498565837740898,0.011186608113348484
1731409629643284700,11.41628466796875,0.1783260703086853,0.03166205435991287,-0.008986038155853748
1731409629653306000,11.42630615234375,0.1474059671163559,0.08085224032402039,-0.03237791359424591
1731409629663327000,11.436326904296875,0.10280893743038177,0.07435838878154755,-0.09122338891029358
1731409629673347000,11.44634716796875,0.05253218486905098,0.06323489546775818,-0.12536191940307617
1731409629683368000,11.456367919921876,0.009074721485376358,0.02201741747558117,-0.1566292941570282
1731409629693389000,11.46638916015625,-0.026876887306571007,0.010282997973263264,-0.16920047998428345
1731409629703410000,11.476409912109375,-0.053289320319890976,0.031217306852340698,-0.12729643285274506
1731409629713430000,11.486429931640625,-0.0669979453086853,0.06778676807880402,-0.05681561306118965
1731409629723451000,11.496450927734376,-0.06380161643028259,0.08940071612596512,0.011650264263153076
1731409629733471700,11.5064716796875,-0.04770360514521599,0.1082838624715805,0.044440433382987976
1731409629743491800,11.516491943359375,-0.037341512739658356,0.13106614351272583,0.058211375027894974
1731409629753513000,11.526512939453125,-0.04183453321456909,0.12575820088386536,0.06971809267997742
1731409629763533800,11.536533935546874,-0.04452352598309517,0.1145380288362503,0.07987778633832932
1731409629773554700,11.5465546875,-0.058812182396650314,0.09995163232088089,0.079621322453022
1731409629783574800,11.55657470703125,-0.06718409806489944,0.0807153508067131,0.07732754200696945
1731409629793596000,11.566595947265625,-0.06637236475944519,0.06148359924554825,0.0745791643857956
1731409629803617000,11.576616943359374,-0.055876050144433975,0.04780081287026405,0.07050798833370209
1731409629813638000,11.586637939453125,-0.04584312066435814,0.030175479128956795,0.07523403316736221
1731409629823658000,11.596657958984375,-0.02942872792482376,0.01890098676085472,0.08116249740123749
1731409629833678800,11.606678955078126,-0.010161557234823704,0.015153120271861553,0.08324109762907028
1731409629843700000,11.616699951171874,-0.0005145227187313139,0.009670470841228962,0.07642393559217453
1731409629853720800,11.626720947265625,-0.0024410535115748644,0.011113370768725872,0.06660965085029602
1731409629863741000,11.636740966796875,-0.005803560372442007,0.016398414969444275,0.04995264485478401
1731409629873761800,11.64676171875,-0.006380401086062193,0.02189917303621769,0.027594076469540596
1731409629883783000,11.656782958984374,-0.006420348770916462,0.022903984412550926,0.009272860363125801
1731409629893803000,11.666802978515625,-0.003980360459536314,0.014564828015863895,-0.004437092691659927
1731409629903824000,11.676823974609375,-0.001933987601660192,0.03003726154565811,0.005116731394082308
1731409629913844700,11.6868447265625,0.0011488876771181822,0.0216006338596344,-0.002001898130401969
1731409629923866000,11.6968662109375,0.00005352953667170368,-0.0057497648522257805,-0.016038354486227036
1731409629933885700,11.7068857421875,-0.0034133736044168472,-0.02093990333378315,-0.01948927901685238
1731409629943907000,11.716906982421875,-0.013378123752772808,-0.0325707271695137,-0.013574131764471531
1731409629953928000,11.726927978515626,-0.020626448094844818,-0.030949926003813744,-0.013852965086698532
1731409629963949000,11.736948974609374,-0.02815493941307068,-0.02070154994726181,-0.013849236071109772
1731409629973969000,11.746968994140625,-0.030546722933650017,-0.022367889061570168,-0.016085226088762283
1731409629983990000,11.756989990234375,-0.02640817128121853,-0.024589765816926956,-0.013902499340474606
1731409629994011000,11.767010986328126,-0.02786518633365631,-0.0381535105407238,-0.008435562252998352
1731409630004031000,11.777031005859374,-0.022242721170186996,-0.03828746825456619,0.0017872473690658808
1731409630014051800,11.7870517578125,-0.024459803476929665,-0.03345303237438202,0.007172691635787487
1731409630024073000,11.797072998046875,-0.026039056479930878,-0.03628956526517868,-0.0011555455857887864
1731409630034093800,11.80709375,-0.03254782408475876,-0.03692366182804108,-0.006566289812326431
1731409630044114000,11.817114013671874,-0.031974710524082184,-0.04018443822860718,-0.0073053170926868916
1731409630054134800,11.827134765625,-0.027757860720157623,-0.05228131264448166,-0.000010918960470007733
1731409630064156000,11.837156005859375,-0.021022194996476173,-0.058342933654785156,0.008250206708908081
1731409630074177000,11.847177001953124,-0.005857622716575861,-0.0639326423406601,0.024222249165177345
1731409630084196900,11.85719677734375,0.009998305700719357,-0.07064647227525711,0.03215394169092178
1731409630094218000,11.867218017578125,0.022422218695282936,-0.07640928775072098,0.037761226296424866
1731409630104239000,11.877239013671876,0.030474020168185234,-0.07406437397003174,0.04519544169306755
1731409630114259000,11.887259033203126,0.03385916352272034,-0.06631777435541153,0.055984970182180405
1731409630124280000,11.897280029296875,0.03671007603406906,-0.07210242003202438,0.05944628268480301
1731409630134301000,11.907301025390625,0.042459309101104736,-0.07848202437162399,0.07109255343675613
1731409630144321800,11.91732177734375,0.049372874200344086,-0.07286515086889267,0.09385831654071808
1731409630154342000,11.927341796875,0.06815322488546371,-0.05788007751107216,0.11821505427360535
1731409630164363000,11.937363037109375,0.08835196495056152,-0.025789786130189896,0.11564590781927109
1731409630174383900,11.9473837890625,0.08831095695495605,0.01224468182772398,0.06753323972225189
1731409630184404700,11.95740478515625,0.06476195156574249,0.027368241921067238,-0.005881058517843485
1731409630194424800,11.9674248046875,0.033067673444747925,0.026934145018458366,-0.061835937201976776
1731409630204446000,11.977446044921875,0.009033708833158016,0.010951717384159565,-0.0943206399679184
1731409630214466800,11.987466796875,-0.009498963132500648,-0.017766479402780533,-0.11254838109016418
1731409630224487000,11.99748681640625,-0.01944107562303543,-0.03387327864766121,-0.10913287848234177
1731409630234507800,12.0075078125,-0.027577832341194153,-0.046369098126888275,-0.09422317147254944
1731409630244529000,12.01752880859375,-0.02538605034351349,-0.02997467666864395,-0.06180770695209503
1731409630254550000,12.027550048828125,-0.010263556614518166,0.002953711897134781,-0.01552250050008297
1731409630264570000,12.037570068359376,0.00032570460462011397,0.02413862571120262,0.024031300097703934
1731409630274591000,12.047591064453124,0.0065380604937672615,0.036506347358226776,0.04559598118066788
1731409630284611800,12.05761181640625,-0.000669252360239625,0.02383449301123619,0.05686035379767418
1731409630294633000,12.067633056640625,-0.013624732382595539,0.03930665925145149,0.07463935017585754
1731409630304653000,12.077653076171876,-0.007759386207908392,0.043896619230508804,0.056237705051898956
1731409630314674000,12.087673828125,-0.001984853995963931,0.015790147706866264,0.04182148352265358
1731409630324694800,12.09769482421875,0.010638795793056488,-0.010543987154960632,0.013340572826564312
1731409630334715000,12.10771484375,0.022838203236460686,-0.010334929451346397,-0.010616425424814224
1731409630344735700,12.11773583984375,0.02977813594043255,-0.001064998097717762,-0.0060051619075238705
1731409630354756900,12.1277568359375,0.034922562539577484,0.0007219829712994397,0.027210049331188202
1731409630364777700,12.13777783203125,0.036315396428108215,-0.014373079873621464,0.039076030254364014
1731409630374797800,12.1477978515625,0.04241829738020897,-0.01744530349969864,0.024087226018309593
1731409630384819000,12.15781884765625,0.04824556037783623,-0.018927086144685745,-0.002784601179882884
1731409630394840000,12.167840087890625,0.05276920646429062,-0.01449665054678917,-0.016473514959216118
1731409630404861000,12.17786083984375,0.052932724356651306,-0.016651414334774017,-0.01677658222615719
1731409630414881000,12.187881103515625,0.04835927486419678,-0.02034495212137699,-0.01515897922217846
1731409630424902000,12.19790185546875,0.04454350098967552,-0.014578942209482193,-0.015223960392177105
1731409630434923000,12.207923095703125,0.03814205899834633,-0.008746087551116943,-0.02309812791645527
1731409630444942800,12.21794287109375,0.03549594059586525,-0.007601460441946983,-0.036980386823415756
1731409630454964000,12.2279638671875,0.038294125348329544,-0.01630626805126667,-0.042220957577228546
1731409630464984800,12.23798486328125,0.03991412743926048,-0.029199697077274323,-0.041547443717718124
1731409630475006000,12.248005859375,0.03750476613640785,-0.04520902410149574,-0.035282623022794724
1731409630485025800,12.25802587890625,0.03947124257683754,-0.04863970726728439,-0.03003140166401863
1731409630495047000,12.268046875,0.04410088062286377,-0.047694817185401917,-0.02130315825343132
